#time,accel_x,accel_y,accel_z
290.215347,2812.782580,-888.247130,-72779.072310
290.217970,3108.864956,-1184.329507,-72625.853210
290.220594,2960.823768,-740.205942,-72625.853210
290.223218,3108.864956,-592.164754,-73085.510509
290.225841,2812.782580,-592.164754,-72625.853210
290.228465,-3108.864956,-7994.224174,-73238.729609
290.231089,1332.370696,-1924.535449,-73391.948708
290.233713,4885.359217,-3404.947333,-72012.976812
290.236336,-4145.153275,-8290.306550,-72166.195912
290.238960,2960.823768,3849.070898,-72319.415011
290.241584,-4293.194464,-4293.194464,-72012.976812
290.244208,-2072.576638,-3404.947333,-74004.825107
290.246831,5033.400406,-1628.453072,-73698.386908
290.249455,3108.864956,-3997.112087,-73238.729609
290.252079,3552.988522,-1036.288319,-73238.729609
290.254703,-2368.659014,-3849.070898,-72166.195912
290.257326,-2368.659014,-1036.288319,-72012.976812
290.259946,-1184.329507,-7254.018232,-72166.195912
290.262566,4145.153275,2664.741391,-74004.825107
290.265187,4145.153275,2812.782580,-73545.167808
290.267807,8142.265362,3997.112087,-74004.825107
290.270427,12435.459826,4293.194464,-72932.291410
290.273047,5329.482782,-2220.617826,-72319.415011
290.275667,7550.100608,1628.453072,-71400.100414
290.278287,3108.864956,148.041188,-71706.538613
290.280907,1036.288319,-5921.647536,-72319.415011
290.283527,4441.235652,5773.606348,-72319.415011
290.286148,1184.329507,2072.576638,-73391.948708
290.288768,5477.523971,-2220.617826,-73851.606007
290.291388,5921.647536,2220.617826,-74004.825107
290.294008,444.123565,-5329.482782,-72779.072310
290.296628,12139.377449,-1480.411884,-72472.634111
290.299248,1480.411884,2220.617826,-71400.100414
290.301868,3404.947333,-5477.523971,-71246.881314
290.304488,11103.089130,8882.471304,-71859.757712
290.307108,-148.041188,-4589.276840,-73238.729609
290.309729,3552.988522,-3552.988522,-74770.920605
290.312349,9770.718434,4145.153275,-74004.825107
290.314969,4589.276840,-1776.494261,-72472.634111
290.317589,7994.224174,1036.288319,-71706.538613
290.320209,2812.782580,-1776.494261,-71400.100414
290.322829,4737.318029,740.205942,-72472.634111
290.325449,1036.288319,1924.535449,-73085.510509
290.328069,3552.988522,592.164754,-73391.948708
290.330690,9178.553681,2516.700203,-73391.948708
290.333310,7994.224174,740.205942,-72472.634111
290.335930,8882.471304,296.082377,-72319.415011
290.338550,7402.059420,-740.205942,-72779.072310
290.341170,4441.235652,1036.288319,-72779.072310
290.343790,2664.741391,-888.247130,-72625.853210
290.346410,2220.617826,148.041188,-72472.634111
290.349030,444.123565,1184.329507,-72012.976812
290.351650,-888.247130,-8142.265362,-72932.291410
290.354271,6957.935855,2368.659014,-74464.482406
290.356891,-2812.782580,-3404.947333,-74004.825107
290.359511,-592.164754,-5033.400406,-73698.386908
290.362131,-1480.411884,-3108.864956,-71859.757712
290.364747,-3997.112087,-2220.617826,-72012.976812
290.367362,1184.329507,-1184.329507,-72012.976812
290.369978,1776.494261,-1480.411884,-73238.729609
290.372594,2072.576638,-2960.823768,-73698.386908
290.375210,6957.935855,-444.123565,-73238.729609
290.377825,-1332.370696,-3701.029710,-72012.976812
290.380441,-592.164754,-4589.276840,-72625.853210
290.383057,2368.659014,-2072.576638,-72319.415011
290.385673,-1332.370696,-5625.565159,-72472.634111
290.388288,888.247130,4589.276840,-73545.167808
290.390904,-2072.576638,-6513.812290,-73085.510509
290.393520,-296.082377,-6809.894666,-73698.386908
290.396136,7994.224174,1036.288319,-73238.729609
290.398751,1924.535449,-1480.411884,-72472.634111
290.401367,2516.700203,-5625.565159,-72625.853210
290.403983,9326.594869,6069.688724,-72625.853210
290.406599,-4589.276840,-10955.047942,-71553.319513
290.409214,3997.112087,-2812.782580,-72625.853210
290.411830,3997.112087,2812.782580,-73085.510509
290.414446,-5033.400406,-9326.594869,-73085.510509
290.417062,-148.041188,-444.123565,-73545.167808
290.419677,-2664.741391,-444.123565,-72779.072310
290.422293,-2220.617826,-6217.729913,-73085.510509
290.424909,5329.482782,1184.329507,-73391.948708
290.427525,-2516.700203,-7846.182985,-73238.729609
290.430140,5921.647536,-3849.070898,-72779.072310
290.432756,2960.823768,1036.288319,-71400.100414
290.435372,-1480.411884,-7994.224174,-72166.195912
290.437988,3552.988522,888.247130,-72932.291410
290.440603,-3849.070898,-9918.759623,-73238.729609
290.443219,1184.329507,2072.576638,-73698.386908
290.445835,-2368.659014,-4589.276840,-73238.729609
290.448450,1184.329507,740.205942,-72779.072310
290.451066,5477.523971,9622.677246,-73238.729609
290.453682,4441.235652,-3552.988522,-73085.510509
290.456298,9178.553681,1332.370696,-71246.881314
290.458913,6069.688724,888.247130,-72166.195912
290.461529,11695.253884,444.123565,-71706.538613
290.464145,296.082377,-3404.947333,-72319.415011
290.466761,3997.112087,1924.535449,-72932.291410
290.469251,6513.812290,6809.894666,-73238.729609
290.471740,2664.741391,-148.041188,-74004.825107
290.474230,7105.977043,888.247130,-73545.167808
290.476720,5329.482782,888.247130,-72932.291410
290.479210,2072.576638,-148.041188,-72932.291410
290.481700,1924.535449,1628.453072,-72472.634111
290.484190,4737.318029,-2220.617826,-71859.757712
290.486680,5773.606348,7105.977043,-72472.634111
290.489170,5329.482782,-2368.659014,-73851.606007
290.491660,8438.347739,7698.141797,-72779.072310
290.494150,2368.659014,5033.400406,-72012.976812
290.496639,-1924.535449,-5477.523971,-72932.291410
290.499129,6069.688724,2812.782580,-72012.976812
290.501619,-3849.070898,-5921.647536,-72932.291410
290.504109,12139.377449,5625.565159,-73698.386908
290.506599,2220.617826,-1480.411884,-74924.139704
290.509089,1924.535449,-8290.306550,-73238.729609
290.511579,16432.571912,9326.594869,-72012.976812
290.514069,2664.741391,-5033.400406,-71093.662214
290.516559,3849.070898,2072.576638,-72932.291410
290.519049,6069.688724,2812.782580,-71859.757712
290.521538,3552.988522,0.000000,-72932.291410
290.524028,6957.935855,2664.741391,-73085.510509
290.526518,7550.100608,4293.194464,-73545.167808
290.529008,6661.853478,1480.411884,-73085.510509
290.531498,3256.906145,444.123565,-73238.729609
290.533988,4885.359217,-1184.329507,-71859.757712
290.536478,8882.471304,1184.329507,-71706.538613
290.538968,3849.070898,-1184.329507,-71859.757712
290.541458,1776.494261,-1924.535449,-72779.072310
290.543947,1480.411884,4885.359217,-72932.291410
290.546437,2516.700203,-7105.977043,-73238.729609
290.548927,6069.688724,-1924.535449,-73085.510509
290.551417,296.082377,592.164754,-72779.072310
290.553907,-6069.688724,-11843.295072,-72779.072310
290.556397,-1628.453072,-2368.659014,-73085.510509
290.558887,-2072.576638,1480.411884,-72625.853210
290.561377,888.247130,-4441.235652,-73851.606007
290.563867,2664.741391,-2664.741391,-73391.948708
290.566357,2960.823768,-1924.535449,-72779.072310
290.568880,5033.400406,-296.082377,-71859.757712
290.571404,-1332.370696,-5033.400406,-71400.100414
290.573927,592.164754,-3701.029710,-72472.634111
290.576451,740.205942,-2812.782580,-72779.072310
290.578974,444.123565,-3849.070898,-73238.729609
290.581498,1924.535449,740.205942,-72472.634111
290.584021,148.041188,-2812.782580,-73238.729609
290.586545,7698.141797,3997.112087,-72932.291410
290.589068,5625.565159,3997.112087,-72932.291410
290.591592,148.041188,-1036.288319,-71859.757712
290.594115,2368.659014,2960.823768,-71706.538613
290.596639,-1332.370696,-11103.089130,-71246.881314
290.599162,592.164754,1628.453072,-74004.825107
290.601686,-148.041188,-7254.018232,-72932.291410
290.604210,296.082377,-3997.112087,-74004.825107
290.606733,-1332.370696,2072.576638,-73085.510509
290.609257,-4145.153275,-3997.112087,-73085.510509
290.611780,-888.247130,-2664.741391,-73545.167808
290.614304,-740.205942,-2664.741391,-73391.948708
290.616827,2960.823768,-1628.453072,-72779.072310
290.619351,2812.782580,-3701.029710,-72779.072310
290.621874,592.164754,740.205942,-72166.195912
290.624398,-148.041188,-5033.400406,-72319.415011
290.626921,-2220.617826,-5329.482782,-72779.072310
290.629445,1628.453072,-2072.576638,-72932.291410
290.631968,444.123565,-1184.329507,-73238.729609
290.634492,-3997.112087,-3701.029710,-73238.729609
290.637015,4737.318029,5921.647536,-74158.044206
290.639539,4737.318029,2664.741391,-73391.948708
290.642063,5181.441594,-3256.906145,-72012.976812
290.644586,11695.253884,7105.977043,-72319.415011
290.647110,3701.029710,-888.247130,-71859.757712
290.649633,5625.565159,-5773.606348,-71246.881314
290.652157,7698.141797,4885.359217,-73085.510509
290.654680,3256.906145,-1776.494261,-72472.634111
290.657204,9918.759623,6513.812290,-74158.044206
290.659727,3552.988522,3256.906145,-73545.167808
290.662251,1480.411884,-592.164754,-73851.606007
290.664774,6365.771101,2368.659014,-73085.510509
290.667298,1332.370696,-296.082377,-72932.291410
290.669846,3701.029710,-3552.988522,-72472.634111
290.672393,6661.853478,3404.947333,-72625.853210
290.674941,3552.988522,-4145.153275,-73085.510509
290.677489,11399.171507,6217.729913,-72779.072310
290.680037,4589.276840,888.247130,-72779.072310
290.682585,2368.659014,-740.205942,-72012.976812
290.685133,2368.659014,1480.411884,-72319.415011
290.687680,1628.453072,592.164754,-73851.606007
290.690228,9474.636058,2072.576638,-72779.072310
290.692776,5773.606348,2516.700203,-73545.167808
290.695324,6217.729913,740.205942,-72932.291410
290.697872,9178.553681,4145.153275,-72779.072310
290.700419,2220.617826,-3256.906145,-71706.538613
290.702967,4737.318029,0.000000,-72012.976812
290.705515,6513.812290,3108.864956,-72166.195912
290.708063,2368.659014,2960.823768,-73851.606007
290.710611,10510.924376,5329.482782,-73238.729609
290.713159,6513.812290,-296.082377,-74770.920605
290.715706,6069.688724,-1628.453072,-73545.167808
290.718254,6957.935855,1332.370696,-72779.072310
290.720802,1480.411884,-1628.453072,-71706.538613
290.723350,5477.523971,740.205942,-72166.195912
290.725898,6513.812290,1184.329507,-72012.976812
290.728445,444.123565,2368.659014,-72625.853210
290.730993,4885.359217,-3701.029710,-73391.948708
290.733541,3552.988522,-5033.400406,-73545.167808
290.736089,-3256.906145,-2072.576638,-72472.634111
290.738637,-2072.576638,-2220.617826,-72625.853210
290.741185,-4737.318029,-6957.935855,-71859.757712
290.743732,-1924.535449,888.247130,-73698.386908
290.746280,1628.453072,-1036.288319,-73851.606007
290.748828,1628.453072,-5477.523971,-73698.386908
290.751376,4589.276840,-740.205942,-73391.948708
290.753924,740.205942,-3849.070898,-72166.195912
290.756472,1480.411884,-4145.153275,-70940.443115
290.759019,3108.864956,2368.659014,-71553.319513
290.761567,-4441.235652,-8438.347739,-72472.634111
290.764115,444.123565,-2220.617826,-73851.606007
290.766663,592.164754,-444.123565,-74464.482406
290.769211,-1036.288319,-7550.100608,-72472.634111
290.771773,8290.306550,7105.977043,-73085.510509
290.774335,-2812.782580,-5033.400406,-72472.634111
290.776897,1332.370696,1036.288319,-72932.291410
290.779459,-148.041188,-4145.153275,-72779.072310
290.782022,3108.864956,-3701.029710,-70634.004916
290.784584,-888.247130,-3701.029710,-72012.976812
290.787146,-592.164754,-5921.647536,-73238.729609
290.789708,-2220.617826,1480.411884,-72779.072310
290.792271,-2072.576638,-2960.823768,-74770.920605
290.794833,1332.370696,-888.247130,-74311.263306
290.797395,-2220.617826,-7550.100608,-73851.606007
290.799957,5921.647536,2072.576638,-72625.853210
290.802520,-1036.288319,6661.853478,-71706.538613
290.805082,1184.329507,-4293.194464,-71859.757712
290.807644,-148.041188,-1924.535449,-72779.072310
290.810206,-2220.617826,-7698.141797,-73085.510509
290.812768,2516.700203,-1036.288319,-73085.510509
290.815331,592.164754,-2664.741391,-73085.510509
290.817893,-3701.029710,592.164754,-73391.948708
290.820455,888.247130,-296.082377,-73085.510509
290.823017,7846.182985,5181.441594,-74464.482406
290.825580,4589.276840,-2812.782580,-71859.757712
290.828142,10510.924376,4145.153275,-72472.634111
290.830704,6069.688724,3849.070898,-71400.100414
290.833266,3849.070898,-7994.224174,-71706.538613
290.835828,8290.306550,2960.823768,-72625.853210
290.838391,2664.741391,-148.041188,-72625.853210
290.840953,8290.306550,2664.741391,-74311.263306
290.843515,9326.594869,4293.194464,-74158.044206
290.846077,1184.329507,1628.453072,-73085.510509
290.848640,4293.194464,-444.123565,-72779.072310
290.851202,6365.771101,1036.288319,-72319.415011
290.853764,5181.441594,1036.288319,-72472.634111
290.856326,-296.082377,-3404.947333,-72932.291410
290.858888,3256.906145,0.000000,-73698.386908
290.861451,6513.812290,2812.782580,-72779.072310
290.864013,-740.205942,0.000000,-73238.729609
290.866575,4145.153275,-1776.494261,-72472.634111
290.869137,1036.288319,-1924.535449,-73698.386908
290.871700,7698.141797,1184.329507,-73698.386908
290.874272,6513.812290,2220.617826,-73085.510509
290.876844,3404.947333,1184.329507,-73851.606007
290.879417,7105.977043,2812.782580,-72779.072310
290.881989,3997.112087,-1036.288319,-71553.319513
290.884561,8438.347739,-1924.535449,-71553.319513
290.887134,7105.977043,444.123565,-71859.757712
290.889706,5477.523971,2960.823768,-72319.415011
290.892278,6661.853478,8882.471304,-74311.263306
290.894851,4145.153275,-1628.453072,-73698.386908
290.897423,9918.759623,-2220.617826,-73085.510509
290.899995,6365.771101,296.082377,-72932.291410
290.902568,4737.318029,-148.041188,-71400.100414
290.905140,296.082377,-888.247130,-72319.415011
290.907712,1480.411884,740.205942,-72625.853210
290.910285,6809.894666,5773.606348,-73545.167808
290.912857,592.164754,-10214.842000,-73085.510509
290.915430,4737.318029,-2220.617826,-73085.510509
290.918002,444.123565,1628.453072,-72012.976812
290.920574,-7550.100608,-11547.212695,-72625.853210
290.923147,-2664.741391,1480.411884,-72625.853210
290.925719,444.123565,-740.205942,-73698.386908
290.928291,148.041188,-7105.977043,-74464.482406
290.930864,5773.606348,740.205942,-73698.386908
290.933436,592.164754,-5033.400406,-72932.291410
290.936008,740.205942,-3108.864956,-72012.976812
290.938581,1332.370696,-3552.988522,-71246.881314
290.941153,592.164754,-888.247130,-71859.757712
290.943725,148.041188,-3404.947333,-72932.291410
290.946298,2516.700203,2072.576638,-73698.386908
290.948870,148.041188,-592.164754,-73391.948708
290.951442,-4441.235652,3849.070898,-73391.948708
290.954015,0.000000,-10214.842000,-72779.072310
290.956594,6217.729913,5625.565159,-73545.167808
290.959173,-3997.112087,-6809.894666,-72319.415011
290.961752,-2220.617826,-9622.677246,-72472.634111
290.964332,6365.771101,4145.153275,-72012.976812
290.966911,-4145.153275,-10214.842000,-72012.976812
290.969490,-444.123565,-1184.329507,-72932.291410
290.972069,-740.205942,-1776.494261,-73085.510509
290.974648,2220.617826,-3552.988522,-74004.825107
290.977228,3552.988522,-740.205942,-73851.606007
290.979807,-4885.359217,-4293.194464,-72319.415011
290.982386,-740.205942,-592.164754,-72166.195912
290.984965,1036.288319,-4441.235652,-72166.195912
290.987545,296.082377,-7846.182985,-72319.415011
290.990124,2812.782580,-1036.288319,-72625.853210
290.992703,-2220.617826,-4145.153275,-72779.072310
290.995282,-740.205942,-2368.659014,-73851.606007
290.997861,2664.741391,5625.565159,-73391.948708
291.000441,2220.617826,-3256.906145,-72625.853210
291.003020,8882.471304,2220.617826,-73085.510509
291.005599,7550.100608,-148.041188,-71859.757712
291.008178,5625.565159,296.082377,-72779.072310
291.010757,10658.965565,6365.771101,-72166.195912
291.013337,-888.247130,-6661.853478,-72166.195912
291.015916,8142.265362,2220.617826,-73238.729609
291.018495,5477.523971,4885.359217,-72932.291410
291.021074,2220.617826,-4293.194464,-73391.948708
291.023653,11843.295072,6809.894666,-73238.729609
291.026233,592.164754,1332.370696,-73238.729609
291.028812,1924.535449,740.205942,-72625.853210
291.031391,8586.388927,-444.123565,-71706.538613
291.033970,6217.729913,1184.329507,-72779.072310
291.036550,-1036.288319,-148.041188,-72625.853210
291.039129,1036.288319,-296.082377,-73085.510509
291.041708,3108.864956,-5625.565159,-73545.167808
291.044287,2664.741391,-296.082377,-72472.634111
291.046866,2220.617826,-4589.276840,-73391.948708
291.049446,7254.018232,2812.782580,-73698.386908
291.052025,2960.823768,3108.864956,-73545.167808
291.054604,2812.782580,-1332.370696,-74464.482406
291.057183,11843.295072,3997.112087,-72319.415011
291.059765,4885.359217,-1184.329507,-71553.319513
291.062347,5329.482782,296.082377,-71400.100414
291.064929,4737.318029,1332.370696,-71859.757712
291.067511,4293.194464,2960.823768,-72932.291410
291.070093,10807.006753,4589.276840,-74158.044206
291.072675,5329.482782,-2220.617826,-73545.167808
291.075257,5625.565159,-1480.411884,-72779.072310
291.077839,8882.471304,4441.235652,-72932.291410
291.080422,1184.329507,-1628.453072,-71706.538613
291.083004,2072.576638,-444.123565,-72319.415011
291.085586,3849.070898,6809.894666,-72319.415011
291.088168,1924.535449,-5329.482782,-73238.729609
291.090750,7254.018232,-3108.864956,-73545.167808
291.093332,-3701.029710,-6809.894666,-72779.072310
291.095914,296.082377,-5773.606348,-72166.195912
291.098496,-4441.235652,-5181.441594,-71553.319513
291.101078,-6661.853478,740.205942,-73238.729609
291.103660,1924.535449,-2072.576638,-74464.482406
291.106242,1924.535449,-4589.276840,-73698.386908
291.108824,3404.947333,-3256.906145,-72166.195912
291.111406,1628.453072,-4441.235652,-72932.291410
291.113988,148.041188,-3256.906145,-71400.100414
291.116570,1036.288319,-3256.906145,-70940.443115
291.119152,-148.041188,-2516.700203,-73085.510509
291.121734,-1776.494261,-296.082377,-74464.482406
291.124316,2664.741391,-4441.235652,-74004.825107
291.126898,5033.400406,3701.029710,-73698.386908
291.129480,-2516.700203,0.000000,-71859.757712
291.132062,-1924.535449,-5181.441594,-72472.634111
291.134644,6513.812290,-296.082377,-72625.853210
291.137226,2072.576638,-3701.029710,-72166.195912
291.139808,-4293.194464,-9030.512492,-72472.634111
291.142390,-444.123565,-3404.947333,-72472.634111
291.144972,-1480.411884,-1184.329507,-72166.195912
291.147554,-148.041188,-5033.400406,-73238.729609
291.150137,592.164754,1924.535449,-74158.044206
291.152719,-2220.617826,-4737.318029,-73391.948708
291.155301,4589.276840,-1628.453072,-73238.729609
291.157883,1776.494261,-888.247130,-71859.757712
291.160465,-4589.276840,-7994.224174,-72625.853210
291.163049,-2220.617826,-6217.729913,-72625.853210
291.165632,148.041188,0.000000,-72319.415011
291.168216,2220.617826,-7846.182985,-73238.729609
291.170800,740.205942,3701.029710,-74004.825107
291.173384,-1184.329507,-2220.617826,-73085.510509
291.175968,9474.636058,9030.512492,-73545.167808
291.178552,2220.617826,-5033.400406,-72319.415011
291.181136,9918.759623,2516.700203,-72779.072310
291.183720,9326.594869,8438.347739,-72472.634111
291.186304,2220.617826,-8438.347739,-72166.195912
291.188887,9918.759623,4145.153275,-72472.634111
291.191471,4145.153275,-592.164754,-72472.634111
291.194055,6069.688724,888.247130,-73545.167808
291.196639,5921.647536,2960.823768,-73238.729609
291.199223,5181.441594,3108.864956,-73851.606007
291.201807,7994.224174,1036.288319,-72779.072310
291.204391,2960.823768,2516.700203,-72472.634111
291.206975,3849.070898,-3701.029710,-71706.538613
291.209558,3997.112087,4589.276840,-73085.510509
291.212142,4441.235652,2072.576638,-72472.634111
291.214726,-1332.370696,-2220.617826,-73851.606007
291.217310,6365.771101,-5625.565159,-73391.948708
291.219894,8290.306550,9030.512492,-72012.976812
291.222478,-2368.659014,-5181.441594,-73238.729609
291.225062,6809.894666,5477.523971,-75230.577904
291.227646,10066.800811,3997.112087,-73238.729609
291.230230,3256.906145,-4293.194464,-72472.634111
291.232813,8734.430116,5181.441594,-73238.729609
291.235397,5773.606348,-740.205942,-71706.538613
291.237981,7698.141797,-1924.535449,-72012.976812
291.240565,7550.100608,4885.359217,-73391.948708
291.243149,4589.276840,-1184.329507,-73698.386908
291.245733,6809.894666,1036.288319,-73851.606007
291.248317,5773.606348,2960.823768,-73238.729609
291.250901,2516.700203,2812.782580,-72932.291410
291.253485,1480.411884,-592.164754,-72319.415011
291.256068,5625.565159,148.041188,-72012.976812
291.258652,6069.688724,5033.400406,-72932.291410
291.261236,296.082377,-9178.553681,-73085.510509
291.263820,740.205942,-4441.235652,-73238.729609
291.266404,148.041188,-888.247130,-71859.757712
291.268988,-3701.029710,-11695.253884,-72166.195912
291.271572,296.082377,2516.700203,-73085.510509
291.274156,-3849.070898,1628.453072,-73698.386908
291.276739,-444.123565,-3701.029710,-73698.386908
291.279323,3404.947333,-1480.411884,-73238.729609
291.281907,740.205942,-5181.441594,-73238.729609
291.284491,1332.370696,-2664.741391,-71706.538613
291.287074,1036.288319,-2220.617826,-70634.004916
291.289658,-2812.782580,-3849.070898,-72472.634111
291.292241,148.041188,-2072.576638,-74464.482406
291.294824,592.164754,-5477.523971,-74158.044206
291.297407,444.123565,-9326.594869,-74464.482406
291.299991,4885.359217,1036.288319,-72932.291410
291.302574,6661.853478,-5477.523971,-72166.195912
291.305157,4293.194464,-4589.276840,-73238.729609
291.307740,-888.247130,-2368.659014,-72166.195912
291.310324,-3552.988522,-7994.224174,-71400.100414
291.312907,-740.205942,296.082377,-72319.415011
291.315490,-2812.782580,-7105.977043,-72472.634111
291.318073,-444.123565,-3108.864956,-74617.701505
291.320657,1036.288319,-444.123565,-74770.920605
291.323240,148.041188,-3404.947333,-73545.167808
291.325823,1332.370696,-444.123565,-72932.291410
291.328406,0.000000,-3997.112087,-72012.976812
291.330990,-2960.823768,-6809.894666,-72012.976812
291.333573,-444.123565,-4885.359217,-72319.415011
291.336156,-1036.288319,-1628.453072,-72932.291410
291.338740,2516.700203,-4145.153275,-73391.948708
291.341323,2516.700203,3256.906145,-73851.606007
291.343906,3552.988522,3256.906145,-72625.853210
291.346489,6365.771101,1628.453072,-72625.853210
291.349073,6365.771101,444.123565,-71706.538613
291.351656,8586.388927,5033.400406,-72472.634111
291.354239,10362.883188,4293.194464,-72625.853210
291.356822,-740.205942,-5625.565159,-72625.853210
291.359406,8734.430116,6957.935855,-72472.634111
291.361989,5625.565159,3552.988522,-72625.853210
291.364572,3849.070898,-2516.700203,-73238.729609
291.367155,10362.883188,7698.141797,-73238.729609
291.369739,5477.523971,-1036.288319,-72932.291410
291.372322,6365.771101,888.247130,-72625.853210
291.374905,3997.112087,4589.276840,-71706.538613
291.377488,4145.153275,-6365.771101,-71093.662214
291.380071,8142.265362,-2368.659014,-72166.195912
291.382654,8586.388927,148.041188,-72166.195912
291.385237,2368.659014,-148.041188,-73085.510509
291.387820,-1184.329507,-4589.276840,-73545.167808
291.390404,11695.253884,6365.771101,-72779.072310
291.392987,3404.947333,-1184.329507,-72779.072310
291.395570,5773.606348,444.123565,-72932.291410
291.398153,9474.636058,4737.318029,-73238.729609
291.400736,4145.153275,-444.123565,-72012.976812
291.403319,6365.771101,296.082377,-71553.319513
291.405902,5625.565159,3849.070898,-72932.291410
291.408486,6809.894666,592.164754,-72012.976812
291.411069,8290.306550,1332.370696,-73851.606007
291.413652,5477.523971,1924.535449,-73238.729609
291.416235,3552.988522,2812.782580,-74004.825107
291.418818,7402.059420,3108.864956,-72472.634111
291.421401,1776.494261,-444.123565,-72166.195912
291.423984,148.041188,2516.700203,-72779.072310
291.426568,6365.771101,-888.247130,-73085.510509
291.429151,2516.700203,-5033.400406,-72779.072310
291.431734,-4293.194464,-7254.018232,-72779.072310
291.434317,1036.288319,-3997.112087,-72932.291410
291.436900,-3108.864956,-6957.935855,-72166.195912
291.439483,-888.247130,444.123565,-73545.167808
291.442066,1628.453072,-3256.906145,-74158.044206
291.444649,2220.617826,-1628.453072,-73545.167808
291.447233,-1480.411884,-4589.276840,-73238.729609
291.449816,1924.535449,-2516.700203,-72472.634111
291.452399,-296.082377,-3997.112087,-71246.881314
291.454982,1480.411884,-2812.782580,-71400.100414
291.457565,-1332.370696,-4145.153275,-72779.072310
291.460148,-3552.988522,-1184.329507,-72932.291410
291.462731,5329.482782,3997.112087,-74158.044206
291.465315,-5773.606348,148.041188,-74004.825107
291.467898,1924.535449,-7994.224174,-72932.291410
291.470481,12583.501014,5181.441594,-72472.634111
291.473064,-2664.741391,-10807.006753,-73085.510509
291.475647,-3256.906145,-6069.688724,-73085.510509
291.478229,1776.494261,3404.947333,-71246.881314
291.480812,-2072.576638,-10955.047942,-71706.538613
291.483395,888.247130,1332.370696,-73391.948708
291.485978,-2220.617826,-592.164754,-72932.291410
291.488561,592.164754,-3701.029710,-74158.044206
291.491144,4737.318029,148.041188,-73238.729609
291.493726,-2960.823768,-7550.100608,-72166.195912
291.496309,1332.370696,-3404.947333,-72319.415011
291.498892,-2664.741391,-5033.400406,-71553.319513
291.501475,-1184.329507,-3404.947333,-72625.853210
291.504058,1332.370696,-2072.576638,-73391.948708
291.506641,1776.494261,1036.288319,-73085.510509
291.509223,5773.606348,5033.400406,-73545.167808
291.511806,5921.647536,-2072.576638,-72625.853210
291.514389,6513.812290,3849.070898,-72472.634111
291.516972,8438.347739,4441.235652,-72012.976812
291.519555,9178.553681,1776.494261,-72932.291410
291.522138,7698.141797,148.041188,-71706.538613
291.524720,3552.988522,296.082377,-73085.510509
291.527303,4145.153275,1332.370696,-72932.291410
291.529886,6513.812290,2960.823768,-73238.729609
291.532469,6957.935855,2072.576638,-73085.510509
291.535052,8142.265362,1036.288319,-73391.948708
291.537635,5033.400406,1924.535449,-73085.510509
291.540217,-2368.659014,-1332.370696,-72779.072310
291.542800,6365.771101,7254.018232,-71859.757712
291.545383,296.082377,3997.112087,-71859.757712
291.547966,1036.288319,-6069.688724,-73391.948708
291.550549,4589.276840,-2664.741391,-72625.853210
291.553131,4737.318029,6365.771101,-73698.386908
291.555714,6217.729913,0.000000,-72472.634111
291.558297,7994.224174,-148.041188,-73698.386908
291.560880,10510.924376,4293.194464,-73391.948708
291.563463,2664.741391,-1332.370696,-72472.634111
291.566046,6809.894666,3552.988522,-72625.853210
291.568628,8142.265362,148.041188,-71859.757712
291.571211,9622.677246,740.205942,-73238.729609
291.573794,7698.141797,2368.659014,-72932.291410
291.576375,1480.411884,296.082377,-73085.510509
291.578956,5921.647536,4145.153275,-73238.729609
291.581537,3701.029710,1184.329507,-73085.510509
291.584118,4293.194464,296.082377,-72166.195912
291.586699,5181.441594,6513.812290,-72779.072310
291.589280,-592.164754,-7698.141797,-73238.729609
291.591861,5625.565159,-3849.070898,-73238.729609
291.594442,-3256.906145,-7254.018232,-72012.976812
291.597023,740.205942,-7698.141797,-72319.415011
291.599604,-6069.688724,0.000000,-72472.634111
291.602185,-6069.688724,148.041188,-74158.044206
291.604766,3552.988522,-2368.659014,-74464.482406
291.607346,296.082377,-4145.153275,-73698.386908
291.609927,-444.123565,-3997.112087,-73238.729609
291.612508,1184.329507,-2072.576638,-72166.195912
291.615089,-2368.659014,-8142.265362,-71400.100414
291.617670,2368.659014,0.000000,-71859.757712
291.620251,1924.535449,-2220.617826,-73391.948708
291.622832,-888.247130,-8882.471304,-73391.948708
291.625413,9474.636058,3108.864956,-74004.825107
291.627994,-1776.494261,-1628.453072,-73085.510509
291.630575,2368.659014,296.082377,-74311.263306
291.633156,1332.370696,-2368.659014,-71553.319513
291.635737,-1628.453072,-8734.430116,-72625.853210
291.638318,2220.617826,-444.123565,-71859.757712
291.640899,-3108.864956,-5329.482782,-72625.853210
291.643480,2368.659014,444.123565,-72932.291410
291.646061,0.000000,-1332.370696,-73238.729609
291.648642,-2960.823768,-3701.029710,-74158.044206
291.651223,1776.494261,3108.864956,-73085.510509
291.653804,296.082377,-6809.894666,-72319.415011
291.656384,1628.453072,-2220.617826,-71706.538613
291.658965,-2960.823768,-7994.224174,-71706.538613
291.661546,-1184.329507,-2220.617826,-73391.948708
291.664127,-4441.235652,-3404.947333,-73238.729609
291.666708,1924.535449,-444.123565,-73851.606007
291.669289,7698.141797,5477.523971,-73085.510509
291.671870,6809.894666,0.000000,-73085.510509
291.674451,8290.306550,2960.823768,-71859.757712
291.677032,5477.523971,2072.576638,-72625.853210
291.679612,8586.388927,3997.112087,-71859.757712
291.682192,4885.359217,-1036.288319,-72932.291410
291.684771,6217.729913,-1924.535449,-73391.948708
291.687351,6957.935855,5773.606348,-72932.291410
291.689931,3256.906145,-1480.411884,-73238.729609
291.692511,9770.718434,4885.359217,-73238.729609
291.695090,7698.141797,2812.782580,-73085.510509
291.697670,3404.947333,-444.123565,-72932.291410
291.700250,4145.153275,-1628.453072,-73085.510509
291.702829,6661.853478,3404.947333,-73238.729609
291.705409,-1776.494261,7994.224174,-71706.538613
291.707989,2516.700203,-4293.194464,-72625.853210
291.710569,3404.947333,6809.894666,-73545.167808
291.713148,-1480.411884,148.041188,-72625.853210
291.715728,12287.418637,4885.359217,-73545.167808
291.718308,5625.565159,-592.164754,-72779.072310
291.720888,3256.906145,-1480.411884,-72779.072310
291.723467,9326.594869,4441.235652,-72932.291410
291.726047,6809.894666,1332.370696,-71553.319513
291.728627,6661.853478,2368.659014,-72625.853210
291.731207,4145.153275,-148.041188,-72472.634111
291.733786,6957.935855,1776.494261,-73238.729609
291.736366,8142.265362,3404.947333,-73238.729609
291.738946,4293.194464,3404.947333,-73085.510509
291.741526,1628.453072,-148.041188,-72932.291410
291.744105,1628.453072,3404.947333,-72932.291410
291.746685,9770.718434,2812.782580,-72932.291410
291.749265,-740.205942,-12435.459826,-73238.729609
291.751845,-1628.453072,-2072.576638,-72932.291410
291.754424,296.082377,-4293.194464,-72012.976812
291.757004,-4737.318029,-14656.077652,-72625.853210
291.759584,444.123565,5477.523971,-72625.853210
291.762164,-888.247130,1776.494261,-74464.482406
291.764743,-2812.782580,-3404.947333,-74158.044206
291.767323,2072.576638,-444.123565,-72779.072310
291.769903,-740.205942,-8882.471304,-72319.415011
291.772483,5033.400406,-4589.276840,-71553.319513
291.775062,-444.123565,-444.123565,-71553.319513
291.777642,-4737.318029,-3701.029710,-72319.415011
291.780222,1332.370696,-3849.070898,-73851.606007
291.782799,8586.388927,1924.535449,-74158.044206
291.785376,-2220.617826,-3256.906145,-73238.729609
291.787953,6513.812290,-3108.864956,-73391.948708
291.790531,740.205942,888.247130,-72012.976812
291.793108,-2368.659014,-11843.295072,-70634.004916
291.795685,5625.565159,7254.018232,-72472.634111
291.798262,-6513.812290,-12583.501014,-72779.072310
291.800839,-4145.153275,-4885.359217,-74464.482406
291.803417,3404.947333,3108.864956,-72779.072310
291.805994,-3256.906145,-8142.265362,-73391.948708
291.808571,5773.606348,1036.288319,-72932.291410
291.811148,148.041188,-4885.359217,-71859.757712
291.813726,-3552.988522,-7994.224174,-72472.634111
291.816303,-888.247130,-2664.741391,-72932.291410
291.818880,-1924.535449,-5773.606348,-73085.510509
291.821457,-2664.741391,-5773.606348,-73085.510509
291.824034,5329.482782,2368.659014,-73238.729609
291.826612,7846.182985,3108.864956,-72779.072310
291.829189,3997.112087,3256.906145,-72932.291410
291.831766,9030.512492,5625.565159,-72472.634111
291.834343,6513.812290,-592.164754,-71859.757712
291.836921,11399.171507,1184.329507,-72625.853210
291.839498,6069.688724,1628.453072,-72779.072310
291.842075,3552.988522,-3552.988522,-72779.072310
291.844652,6957.935855,3997.112087,-73238.729609
291.847229,5329.482782,2220.617826,-72779.072310
291.849807,8438.347739,1776.494261,-73851.606007
291.852384,7994.224174,740.205942,-73698.386908
291.854961,6217.729913,1184.329507,-72012.976812
291.857538,1480.411884,-148.041188,-72472.634111
291.860116,-1036.288319,3404.947333,-72012.976812
291.862693,592.164754,-1924.535449,-72932.291410
291.865270,296.082377,1036.288319,-72625.853210
291.867847,4589.276840,444.123565,-73085.510509
291.870424,8734.430116,5181.441594,-74158.044206
291.873002,7105.977043,0.000000,-72319.415011
291.875579,4737.318029,296.082377,-72932.291410
291.878156,6513.812290,2960.823768,-72472.634111
291.880733,7402.059420,2960.823768,-72012.976812
291.883311,6365.771101,-2368.659014,-72319.415011
291.885886,8142.265362,3997.112087,-73085.510509
291.888461,5477.523971,2072.576638,-72779.072310
291.891037,8290.306550,2516.700203,-72625.853210
291.893612,3701.029710,4145.153275,-72932.291410
291.896188,1480.411884,0.000000,-73085.510509
291.898763,2368.659014,2368.659014,-73085.510509
291.901339,4885.359217,-2368.659014,-73238.729609
291.903914,4145.153275,-10362.883188,-72932.291410
291.906490,-5033.400406,-3997.112087,-72779.072310
291.909065,-1480.411884,-7105.977043,-71553.319513
291.911640,-3256.906145,-9326.594869,-71706.538613
291.914216,-296.082377,1924.535449,-72932.291410
291.916791,148.041188,2812.782580,-74311.263306
291.919367,-1332.370696,-2220.617826,-73698.386908
291.921942,-1184.329507,-2368.659014,-73391.948708
291.924518,-888.247130,-6513.812290,-72012.976812
291.927093,1480.411884,-6217.729913,-71553.319513
291.929669,740.205942,-1776.494261,-71859.757712
291.932244,-6513.812290,-4293.194464,-72779.072310
291.934820,-148.041188,9178.553681,-73698.386908
291.937395,-1924.535449,-13323.706956,-73391.948708
291.939970,-3404.947333,-5329.482782,-75383.797003
291.942546,2960.823768,-740.205942,-73545.167808
291.945121,1628.453072,-4145.153275,-71400.100414
291.947697,1332.370696,-6957.935855,-72472.634111
291.950272,1036.288319,2960.823768,-71859.757712
291.952848,-7402.059420,-11991.336260,-73238.729609
291.955423,4145.153275,5625.565159,-73851.606007
291.957999,-2664.741391,-5625.565159,-73851.606007
291.960574,-1184.329507,-5181.441594,-73545.167808
291.963149,2368.659014,-1924.535449,-72012.976812
291.965725,-2812.782580,-7402.059420,-72472.634111
291.968300,-444.123565,-3256.906145,-72472.634111
291.970876,-444.123565,-6069.688724,-73545.167808
291.973451,-1480.411884,-4145.153275,-73391.948708
291.976027,444.123565,-1184.329507,-73085.510509
291.978602,8438.347739,6809.894666,-72625.853210
291.981178,4589.276840,0.000000,-73085.510509
291.983753,8734.430116,7105.977043,-73085.510509
291.986329,6957.935855,-296.082377,-72625.853210
291.988903,12139.377449,2072.576638,-72319.415011
291.991477,4145.153275,4441.235652,-72779.072310
291.994051,4293.194464,-2812.782580,-72779.072310
291.996625,7402.059420,3701.029710,-72779.072310
291.999199,5477.523971,888.247130,-73085.510509
292.001773,8142.265362,5181.441594,-73698.386908
292.004347,6957.935855,740.205942,-74158.044206
292.006921,2368.659014,740.205942,-73545.167808
292.009495,9178.553681,-1036.288319,-72472.634111
292.012069,3701.029710,7402.059420,-71859.757712
292.014644,1776.494261,2220.617826,-70940.443115
292.017218,-592.164754,-3701.029710,-73391.948708
292.019792,6513.812290,6513.812290,-74464.482406
292.022366,7846.182985,4293.194464,-73698.386908
292.024940,2664.741391,-4589.276840,-73085.510509
292.027514,12583.501014,8142.265362,-72166.195912
292.030088,3404.947333,-2072.576638,-70940.443115
292.032662,9178.553681,3256.906145,-71706.538613
292.035236,4737.318029,-2812.782580,-72319.415011
292.037810,6661.853478,2516.700203,-73851.606007
292.040385,10066.800811,1480.411884,-73085.510509
292.042959,6513.812290,1036.288319,-72932.291410
292.045533,4737.318029,2664.741391,-72472.634111
292.048107,3404.947333,1480.411884,-72625.853210
292.050681,2960.823768,5477.523971,-72319.415011
292.053255,3256.906145,-6957.935855,-73238.729609
292.055829,5181.441594,-7698.141797,-73545.167808
292.058403,-1332.370696,-4293.194464,-72166.195912
292.060977,-6217.729913,-14804.118840,-71859.757712
292.063551,-1776.494261,2960.823768,-71859.757712
292.066126,-4737.318029,1628.453072,-73085.510509
292.068700,4441.235652,-1924.535449,-74311.263306
292.071274,2960.823768,-740.205942,-73698.386908
292.073848,-2664.741391,-7254.018232,-72932.291410
292.076422,444.123565,-2960.823768,-72625.853210
292.078996,-4293.194464,-9030.512492,-71246.881314
292.081570,-1924.535449,0.000000,-72932.291410
292.084144,2368.659014,3701.029710,-72625.853210
292.086718,-7105.977043,-5181.441594,-75230.577904
292.089292,3997.112087,-1332.370696,-75537.016103
292.091864,5625.565159,1480.411884,-73391.948708
292.094436,-5921.647536,-14211.954086,-72319.415011
292.097008,3997.112087,3108.864956,-72012.976812
292.099580,0.000000,148.041188,-71246.881314
292.102152,-3701.029710,-10807.006753,-73238.729609
292.104723,1776.494261,5033.400406,-75383.797003
292.107295,-2516.700203,-3256.906145,-74004.825107
292.109867,2960.823768,-4737.318029,-73851.606007
292.112439,2664.741391,-444.123565,-71093.662214
292.115011,-4737.318029,-9474.636058,-71400.100414
292.117583,-444.123565,-4441.235652,-73238.729609
292.120155,740.205942,-6365.771101,-73085.510509
292.122726,296.082377,-3552.988522,-74004.825107
292.125298,1480.411884,888.247130,-73085.510509
292.127870,6957.935855,3256.906145,-72472.634111
292.130442,3701.029710,3256.906145,-71859.757712
292.133014,5921.647536,7402.059420,-72319.415011
292.135586,8734.430116,1776.494261,-72166.195912
292.138158,7698.141797,-2368.659014,-72932.291410
292.140729,9918.759623,2960.823768,-72472.634111
292.143301,2516.700203,-2812.782580,-72932.291410
292.145873,3256.906145,3108.864956,-73085.510509
292.148445,7254.018232,3404.947333,-73238.729609
292.151017,7698.141797,3256.906145,-73391.948708
292.153589,5033.400406,-1776.494261,-74004.825107
292.156160,5625.565159,5033.400406,-74158.044206
292.158732,6957.935855,5181.441594,-72625.853210
292.161304,-592.164754,1036.288319,-71706.538613
292.163876,2072.576638,1776.494261,-72625.853210
292.166448,3404.947333,5033.400406,-72319.415011
292.169020,1628.453072,-444.123565,-75537.016103
292.171592,13175.665768,4737.318029,-74311.263306
292.174163,5625.565159,148.041188,-73085.510509
292.176735,6957.935855,-148.041188,-71706.538613
292.179307,7846.182985,7105.977043,-71553.319513
292.181879,2220.617826,-5329.482782,-71859.757712
292.184451,11547.212695,3701.029710,-72932.291410
292.187023,4737.318029,1036.288319,-73238.729609
292.189595,5625.565159,3256.906145,-74464.482406
292.192166,6217.729913,5033.400406,-72319.415011
292.194737,148.041188,-1776.494261,-73238.729609
292.197307,6069.688724,9918.759623,-72472.634111
292.199878,1480.411884,-7550.100608,-72932.291410
292.202448,5329.482782,-9770.718434,-73545.167808
292.205019,-2812.782580,-4589.276840,-74004.825107
292.207590,-5329.482782,-12435.459826,-72319.415011
292.210160,-2960.823768,-5329.482782,-71706.538613
292.212731,148.041188,2072.576638,-72625.853210
292.215301,0.000000,888.247130,-73545.167808
292.217872,2220.617826,-2368.659014,-74004.825107
292.220443,-1184.329507,-2664.741391,-73391.948708
292.223013,-592.164754,-6365.771101,-72625.853210
292.225584,1924.535449,-2072.576638,-71553.319513
292.228154,-3404.947333,-10066.800811,-71093.662214
292.230725,3108.864956,-1628.453072,-73085.510509
292.233296,-296.082377,2664.741391,-73085.510509
292.235866,-148.041188,-740.205942,-74924.139704
292.238437,5477.523971,-2960.823768,-73698.386908
292.241007,-6365.771101,-11251.130318,-73238.729609
292.243578,740.205942,-888.247130,-71093.662214
292.246149,-1924.535449,-5773.606348,-70327.566716
292.248719,-2368.659014,-4885.359217,-72932.291410
292.251290,296.082377,2960.823768,-74004.825107
292.253860,-2664.741391,-3997.112087,-75843.454302
292.256431,-444.123565,-4737.318029,-73085.510509
292.259001,1924.535449,-2664.741391,-71400.100414
292.261572,-2664.741391,-8586.388927,-71400.100414
292.264143,296.082377,-2516.700203,-72779.072310
292.266713,-1924.535449,-5921.647536,-74464.482406
292.269284,2072.576638,-1628.453072,-74617.701505
292.271854,2368.659014,5625.565159,-73085.510509
292.274425,7105.977043,592.164754,-72932.291410
292.276994,11547.212695,6069.688724,-71093.662214
292.279564,4885.359217,6957.935855,-72625.853210
292.282133,6217.729913,740.205942,-72319.415011
292.284703,6661.853478,-1628.453072,-73238.729609
292.287272,9622.677246,1924.535449,-73698.386908
292.289842,5329.482782,-2072.576638,-73238.729609
292.292411,2664.741391,-1184.329507,-72779.072310
292.294981,7105.977043,8142.265362,-72319.415011
292.297550,4145.153275,-592.164754,-73085.510509
292.300119,4737.318029,1776.494261,-74617.701505
292.302689,10807.006753,5181.441594,-72932.291410
292.305258,-2368.659014,2368.659014,-72472.634111
292.307828,2368.659014,-10066.800811,-71553.319513
292.310397,14359.995275,11695.253884,-71246.881314
292.312967,-5329.482782,-3997.112087,-72779.072310
292.315536,9178.553681,3997.112087,-75537.016103
292.318106,16136.489536,6217.729913,-75077.358804
292.320675,3552.988522,-4145.153275,-73238.729609
292.323244,10214.842000,6069.688724,-72012.976812
292.325814,2516.700203,-1332.370696,-70940.443115
292.328383,6661.853478,-1480.411884,-71400.100414
292.330953,9474.636058,3997.112087,-72779.072310
292.333522,1924.535449,444.123565,-73851.606007
292.336092,7254.018232,5625.565159,-73085.510509
292.338661,592.164754,296.082377,-73085.510509
292.341231,2812.782580,5477.523971,-72012.976812
292.343800,3108.864956,-3997.112087,-72472.634111
292.346369,5477.523971,-7402.059420,-72932.291410
292.348939,-3849.070898,-7550.100608,-73085.510509
292.351508,-2664.741391,-11695.253884,-73085.510509
292.354078,-1924.535449,-3108.864956,-71706.538613
292.356647,-3849.070898,-1480.411884,-73238.729609
292.359217,3256.906145,1924.535449,-74770.920605
292.361786,-888.247130,-1480.411884,-73238.729609
292.364356,-2368.659014,-4441.235652,-73391.948708
292.366925,3552.988522,-6957.935855,-72625.853210
292.369495,1628.453072,-5477.523971,-72932.291410
292.372064,-3404.947333,-3404.947333,-72779.072310
292.374633,-3552.988522,3552.988522,-72012.976812
292.377203,-4737.318029,1184.329507,-72932.291410
292.379771,-1628.453072,-592.164754,-74924.139704
292.382338,740.205942,-8290.306550,-74004.825107
292.384906,1924.535449,444.123565,-73238.729609
292.387474,-1924.535449,-7105.977043,-71400.100414
292.390041,-2664.741391,-2072.576638,-71400.100414
292.392609,-6217.729913,888.247130,-72472.634111
292.395176,-1184.329507,-5477.523971,-73851.606007
292.397744,3108.864956,-3701.029710,-74924.139704
292.400312,2812.782580,-3256.906145,-73391.948708
292.402879,-1628.453072,-7254.018232,-72319.415011
292.405447,-2368.659014,-3108.864956,-71706.538613
292.408015,-2812.782580,-4589.276840,-72319.415011
292.410582,3256.906145,-3404.947333,-73391.948708
292.413150,3256.906145,-740.205942,-73698.386908
292.415718,9030.512492,3701.029710,-72932.291410
292.418285,3108.864956,888.247130,-71859.757712
292.420853,7402.059420,8290.306550,-71093.662214
292.423421,6809.894666,3404.947333,-71706.538613
292.425988,9770.718434,-296.082377,-72319.415011
292.428556,5181.441594,4145.153275,-73238.729609
292.431124,2812.782580,-740.205942,-74004.825107
292.433691,7105.977043,740.205942,-73698.386908
292.436259,3404.947333,1332.370696,-72625.853210
292.438827,7105.977043,2812.782580,-72779.072310
292.441394,7105.977043,296.082377,-73698.386908
292.443962,4293.194464,-4441.235652,-72932.291410
292.446530,9474.636058,-1036.288319,-73851.606007
292.449097,3256.906145,2516.700203,-70787.224015
292.451665,1332.370696,-8142.265362,-71400.100414
292.454233,11251.130318,8438.347739,-72779.072310
292.456800,8734.430116,2220.617826,-74004.825107
292.459368,5329.482782,-3552.988522,-74617.701505
292.461936,14952.160028,7698.141797,-73851.606007
292.464503,3256.906145,148.041188,-71400.100414
292.467071,7550.100608,1332.370696,-71093.662214
292.469639,6365.771101,-148.041188,-71093.662214
292.472206,4885.359217,1184.329507,-72472.634111
292.474774,7550.100608,2516.700203,-74311.263306
292.477342,4885.359217,-148.041188,-73851.606007
292.479909,3404.947333,2220.617826,-73085.510509
292.482476,592.164754,5773.606348,-72319.415011
292.485042,1184.329507,-4589.276840,-72012.976812
292.487609,5477.523971,-6069.688724,-72625.853210
292.490175,-4737.318029,-13175.665768,-72932.291410
292.492742,-1036.288319,-5329.482782,-73238.729609
292.495308,-3404.947333,-1480.411884,-73238.729609
292.497874,-3256.906145,-2664.741391,-73085.510509
292.500441,4737.318029,4293.194464,-73391.948708
292.503007,-1924.535449,-2072.576638,-72625.853210
292.505574,-888.247130,-4885.359217,-73545.167808
292.508140,4145.153275,-6217.729913,-73238.729609
292.510707,3552.988522,-5181.441594,-71859.757712
292.513273,-6069.688724,-888.247130,-72472.634111
292.515839,-8586.388927,2072.576638,-72472.634111
292.518406,1924.535449,-592.164754,-73391.948708
292.520972,2072.576638,-2220.617826,-74004.825107
292.523539,5477.523971,-11991.336260,-73851.606007
292.526105,4293.194464,3404.947333,-72472.634111
292.528672,-5773.606348,-10066.800811,-70480.785816
292.531238,-5625.565159,444.123565,-71553.319513
292.533805,-4589.276840,-2664.741391,-72472.634111
292.536371,592.164754,-4589.276840,-74924.139704
292.538937,3997.112087,-2220.617826,-74158.044206
292.541504,-1628.453072,-9030.512492,-73238.729609
292.544070,-1332.370696,-888.247130,-71246.881314
292.546637,-2812.782580,-7254.018232,-71553.319513
292.549203,1924.535449,-6957.935855,-73085.510509
292.551770,4293.194464,3849.070898,-73851.606007
292.554336,4589.276840,6957.935855,-73545.167808
292.556902,5477.523971,-148.041188,-73545.167808
292.559469,9030.512492,8290.306550,-72166.195912
292.562035,5181.441594,2072.576638,-70940.443115
292.564602,8142.265362,4589.276840,-71246.881314
292.567168,3701.029710,-1184.329507,-72779.072310
292.569735,9622.677246,1036.288319,-74311.263306
292.572301,8734.430116,-2220.617826,-73238.729609
292.574867,6365.771101,-296.082377,-72779.072310
292.577434,7698.141797,6809.894666,-72319.415011
292.580000,2516.700203,592.164754,-71246.881314
292.582567,5181.441594,3849.070898,-73238.729609
292.585132,1184.329507,-1480.411884,-73085.510509
292.587698,3404.947333,592.164754,-73851.606007
292.590263,1628.453072,2516.700203,-71400.100414
292.592829,2664.741391,-1480.411884,-71859.757712
292.595394,8142.265362,5033.400406,-73391.948708
292.597960,8438.347739,-888.247130,-74004.825107
292.600525,14359.995275,2368.659014,-74311.263306
292.603091,6809.894666,1184.329507,-72932.291410
292.605656,2664.741391,1184.329507,-72012.976812
292.608222,5625.565159,592.164754,-71246.881314
292.610787,8290.306550,4293.194464,-72012.976812
292.613353,8734.430116,1036.288319,-73545.167808
292.615918,5477.523971,-148.041188,-74004.825107
292.618484,3701.029710,4145.153275,-73391.948708
292.621050,148.041188,5773.606348,-72625.853210
292.623615,888.247130,-8586.388927,-72472.634111
292.626181,6661.853478,-1924.535449,-72472.634111
292.628746,-5773.606348,-7698.141797,-72166.195912
292.631312,-5329.482782,-13175.665768,-73238.729609
292.633877,-3701.029710,1924.535449,-73085.510509
292.636443,-4145.153275,-2368.659014,-73391.948708
292.639008,4885.359217,888.247130,-73851.606007
292.641574,592.164754,-1480.411884,-72625.853210
292.644139,-3701.029710,-6957.935855,-72472.634111
292.646705,2516.700203,-4737.318029,-72932.291410
292.649270,2812.782580,-296.082377,-71093.662214
292.651836,-1332.370696,-5773.606348,-71706.538613
292.654401,-2516.700203,-740.205942,-73238.729609
292.656967,1776.494261,-3849.070898,-73238.729609
292.659532,5477.523971,-5625.565159,-74004.825107
292.662098,7254.018232,-1776.494261,-71859.757712
292.664663,-4441.235652,-7105.977043,-72319.415011
292.667229,-2220.617826,-2220.617826,-71859.757712
292.669794,-4885.359217,-888.247130,-71706.538613
292.672360,-3108.864956,-3552.988522,-73545.167808
292.674925,2072.576638,-3404.947333,-74770.920605
292.677491,888.247130,-6069.688724,-74158.044206
292.680056,-3108.864956,-5625.565159,-72472.634111
292.682622,-444.123565,-6069.688724,-70634.004916
292.685188,888.247130,-4589.276840,-71859.757712
292.687751,296.082377,-1776.494261,-72779.072310
292.690315,4885.359217,-1036.288319,-74158.044206
292.692879,12435.459826,4145.153275,-73085.510509
292.695442,4885.359217,2812.782580,-71553.319513
292.698006,3552.988522,3552.988522,-72319.415011
292.700570,7254.018232,5033.400406,-71706.538613
292.703133,5773.606348,-740.205942,-71859.757712
292.705697,10658.965565,4737.318029,-72932.291410
292.708261,3404.947333,-2368.659014,-74158.044206
292.710824,5033.400406,2664.741391,-73698.386908
292.713388,4145.153275,3997.112087,-73085.510509
292.715952,4441.235652,444.123565,-73238.729609
292.718515,6809.894666,888.247130,-71859.757712
292.721079,8882.471304,-2516.700203,-73238.729609
292.723643,4589.276840,148.041188,-71400.100414
292.726206,2220.617826,2516.700203,-72779.072310
292.728770,4293.194464,3256.906145,-71553.319513
292.731334,5033.400406,4441.235652,-73545.167808
292.733897,5181.441594,2812.782580,-74311.263306
292.736461,13471.748144,-296.082377,-74004.825107
292.739025,13619.789333,1628.453072,-72932.291410
292.741588,3552.988522,-1036.288319,-71553.319513
292.744152,3404.947333,3701.029710,-70787.224015
292.746716,3701.029710,2812.782580,-72012.976812
292.749279,9326.594869,3108.864956,-72166.195912
292.751843,6069.688724,740.205942,-73085.510509
292.754407,5625.565159,0.000000,-74311.263306
292.756970,5329.482782,5921.647536,-73238.729609
292.759534,-6365.771101,-11399.171507,-72472.634111
292.762098,4737.318029,-444.123565,-72319.415011
292.764661,-2368.659014,-9622.677246,-72012.976812
292.767225,-3108.864956,-13471.748144,-72472.634111
292.769789,-1776.494261,2220.617826,-72932.291410
292.772352,-6809.894666,-4145.153275,-73698.386908
292.774916,2664.741391,-296.082377,-74004.825107
292.777480,3997.112087,1332.370696,-72012.976812
292.780043,-3701.029710,-10955.047942,-72932.291410
292.782607,5477.523971,-1036.288319,-72932.291410
292.785171,-5773.606348,-7402.059420,-73238.729609
292.787734,-888.247130,4737.318029,-73391.948708
292.790297,-8586.388927,-2072.576638,-72319.415011
292.792860,4145.153275,2220.617826,-74770.920605
292.795423,-1924.535449,-3256.906145,-74464.482406
292.797986,-2960.823768,-8882.471304,-73391.948708
292.800548,1036.288319,2960.823768,-72012.976812
292.803111,-3108.864956,-8290.306550,-71246.881314
292.805674,-1332.370696,296.082377,-72319.415011
292.808237,-2220.617826,-2072.576638,-73085.510509
292.810800,-148.041188,-6365.771101,-73698.386908
292.813363,-296.082377,-7254.018232,-73698.386908
292.815925,-2368.659014,-3701.029710,-71553.319513
292.818488,148.041188,-4589.276840,-71859.757712
292.821051,148.041188,-4145.153275,-72166.195912
292.823614,5181.441594,1332.370696,-73085.510509
292.826177,5921.647536,9622.677246,-73698.386908
292.828740,3552.988522,1036.288319,-72779.072310
292.831302,5773.606348,5329.482782,-72166.195912
292.833865,6957.935855,2812.782580,-71400.100414
292.836428,9474.636058,296.082377,-71859.757712
292.838991,5329.482782,5773.606348,-72932.291410
292.841554,2664.741391,-2664.741391,-74158.044206
292.844116,11251.130318,3701.029710,-73851.606007
292.846679,4737.318029,-1332.370696,-73545.167808
292.849242,9030.512492,2368.659014,-72472.634111
292.851805,11103.089130,1924.535449,-71706.538613
292.854368,2960.823768,8734.430116,-72166.195912
292.856931,0.000000,-444.123565,-72932.291410
292.859493,11399.171507,1776.494261,-72779.072310
292.862056,1628.453072,7994.224174,-73238.729609
292.864619,1776.494261,-1628.453072,-73545.167808
292.867182,12139.377449,6217.729913,-74004.825107
292.869745,5625.565159,-1184.329507,-73238.729609
292.872307,9474.636058,-1480.411884,-73085.510509
292.874870,13619.789333,5033.400406,-72166.195912
292.877433,-296.082377,-740.205942,-70480.785816
292.879996,5625.565159,5773.606348,-72932.291410
292.882559,4737.318029,3997.112087,-72319.415011
292.885122,5921.647536,-740.205942,-73238.729609
292.887684,5921.647536,1480.411884,-73391.948708
292.890247,2664.741391,2368.659014,-73545.167808
292.892808,0.000000,-4589.276840,-73238.729609
292.895370,-1776.494261,-9770.718434,-72319.415011
292.897931,-1332.370696,-3552.988522,-72319.415011
292.900492,-6513.812290,-11251.130318,-72166.195912
292.903053,-1332.370696,-1480.411884,-73545.167808
292.905614,-2220.617826,296.082377,-73545.167808
292.908176,296.082377,-3404.947333,-73851.606007
292.910737,4145.153275,0.000000,-73238.729609
292.913298,-296.082377,-6365.771101,-72319.415011
292.915859,1480.411884,-592.164754,-71706.538613
292.918420,1480.411884,-5773.606348,-71400.100414
292.920981,-3256.906145,-888.247130,-73085.510509
292.923543,1480.411884,-888.247130,-73085.510509
292.926104,2516.700203,-5033.400406,-73391.948708
292.928665,5329.482782,-5625.565159,-73545.167808
292.931226,-148.041188,-5625.565159,-72166.195912
292.933787,-2516.700203,-5625.565159,-72472.634111
292.936349,-3108.864956,-444.123565,-72166.195912
292.938910,-2220.617826,-1924.535449,-73391.948708
292.941471,-2960.823768,-3849.070898,-74924.139704
292.944032,0.000000,-6365.771101,-73391.948708
292.946593,-740.205942,-4441.235652,-72625.853210
292.949154,-2516.700203,-6661.853478,-71400.100414
292.951716,-444.123565,-7254.018232,-72166.195912
292.954277,2368.659014,2516.700203,-73238.729609
292.956838,3701.029710,2368.659014,-72932.291410
292.959399,13027.624579,4885.359217,-73085.510509
292.961960,7105.977043,1776.494261,-72166.195912
292.964522,3849.070898,3701.029710,-71706.538613
292.967083,6513.812290,2664.741391,-71246.881314
292.969644,5181.441594,888.247130,-72166.195912
292.972205,10362.883188,888.247130,-73085.510509
292.974766,5773.606348,1776.494261,-74464.482406
292.977327,2516.700203,-2072.576638,-74158.044206
292.979889,10214.842000,8586.388927,-72779.072310
292.982450,5477.523971,-3701.029710,-71400.100414
292.985011,6957.935855,-2812.782580,-72625.853210
292.987572,9770.718434,1480.411884,-70940.443115
292.990133,7254.018232,2368.659014,-72319.415011
292.992695,3849.070898,1776.494261,-72932.291410
292.995255,6217.729913,1036.288319,-73238.729609
292.997815,9030.512492,4145.153275,-73391.948708
293.000375,8438.347739,444.123565,-73238.729609
293.002935,14359.995275,2072.576638,-72932.291410
293.005496,8142.265362,592.164754,-72319.415011
293.008056,1480.411884,-888.247130,-72319.415011
293.010616,5033.400406,5773.606348,-72319.415011
293.013176,3849.070898,2368.659014,-72166.195912
293.015736,5921.647536,-1332.370696,-72932.291410
293.018297,4885.359217,2072.576638,-73545.167808
293.020857,1628.453072,3849.070898,-74004.825107
293.023417,148.041188,-8142.265362,-73238.729609
293.025977,1184.329507,-9178.553681,-72779.072310
293.028537,-1776.494261,-2664.741391,-72932.291410
293.031098,-5033.400406,-10362.883188,-72932.291410
293.033658,-3256.906145,-1480.411884,-73085.510509
293.036218,-2072.576638,-888.247130,-73545.167808
293.038778,1776.494261,-1480.411884,-74158.044206
293.041338,1184.329507,-3108.864956,-72472.634111
293.043899,1036.288319,-4145.153275,-72625.853210
293.046459,444.123565,-740.205942,-71706.538613
293.049019,-2516.700203,-7698.141797,-71246.881314
293.051579,0.000000,-888.247130,-72472.634111
293.054139,1628.453072,1036.288319,-73391.948708
293.056700,4441.235652,-6365.771101,-74158.044206
293.059260,888.247130,-4293.194464,-73851.606007
293.061820,-2220.617826,-3404.947333,-72625.853210
293.064380,-3997.112087,-5181.441594,-71553.319513
293.066940,-2960.823768,740.205942,-72472.634111
293.069501,-3256.906145,-4885.359217,-74311.263306
293.072061,1480.411884,-2960.823768,-75230.577904
293.074621,-4145.153275,-8438.347739,-74617.701505
293.077181,-2072.576638,-5625.565159,-72779.072310
293.079741,-592.164754,-1332.370696,-70940.443115
293.082302,-148.041188,-9622.677246,-71859.757712
293.084862,7402.059420,7994.224174,-72625.853210
293.087422,3256.906145,5477.523971,-72779.072310
293.089982,5773.606348,-740.205942,-72779.072310
293.092543,9622.677246,5181.441594,-71859.757712
293.095103,3997.112087,-444.123565,-71400.100414
293.097663,10510.924376,5625.565159,-71553.319513
293.100223,2812.782580,1036.288319,-72472.634111
293.102782,4589.276840,-2664.741391,-73851.606007
293.105342,12287.418637,6661.853478,-74004.825107
293.107902,4293.194464,-1184.329507,-73851.606007
293.110462,5625.565159,4441.235652,-73085.510509
293.113022,7994.224174,6809.894666,-71400.100414
293.115582,-740.205942,3997.112087,-71706.538613
293.118142,2220.617826,-148.041188,-73238.729609
293.120702,2516.700203,6957.935855,-72779.072310
293.123262,148.041188,-148.041188,-74617.701505
293.125822,11399.171507,5329.482782,-74311.263306
293.128381,7402.059420,1628.453072,-73238.729609
293.130941,11547.212695,-888.247130,-73238.729609
293.133501,11399.171507,3997.112087,-71553.319513
293.136061,0.000000,444.123565,-70634.004916
293.138621,7698.141797,4737.318029,-71553.319513
293.141181,6957.935855,2812.782580,-72319.415011
293.143741,6809.894666,-444.123565,-73085.510509
293.146301,3997.112087,2664.741391,-73545.167808
293.148861,1036.288319,2960.823768,-73545.167808
293.151421,-2516.700203,-7550.100608,-73391.948708
293.153980,2664.741391,-6365.771101,-73698.386908
293.156540,-3108.864956,-7698.141797,-72932.291410
293.159100,-3552.988522,-10362.883188,-72012.976812
293.161660,-4293.194464,-2664.741391,-72932.291410
293.164220,-1480.411884,-2220.617826,-73391.948708
293.166780,2812.782580,1924.535449,-73391.948708
293.169340,-888.247130,-4737.318029,-73085.510509
293.171900,2960.823768,-4293.194464,-72779.072310
293.174460,296.082377,-2072.576638,-73238.729609
293.177020,3849.070898,-3256.906145,-71706.538613
293.179580,-4737.318029,-592.164754,-72472.634111
293.182139,-296.082377,-4589.276840,-73238.729609
293.184699,9622.677246,10066.800811,-72319.415011
293.187259,-3849.070898,-7994.224174,-72932.291410
293.189819,-2812.782580,-8290.306550,-72625.853210
293.192379,1332.370696,4145.153275,-71093.662214
293.194939,-5625.565159,-10066.800811,-72319.415011
293.197499,1184.329507,592.164754,-72932.291410
293.200056,-3404.947333,-5033.400406,-74004.825107
293.202615,-1776.494261,-7402.059420,-73698.386908
293.205174,1332.370696,-4293.194464,-72472.634111
293.207733,444.123565,-4589.276840,-72166.195912
293.210292,2220.617826,-2220.617826,-71553.319513
293.212851,3404.947333,3256.906145,-72779.072310
293.215409,11843.295072,4589.276840,-72932.291410
293.217968,7550.100608,-740.205942,-72779.072310
293.220527,8438.347739,4441.235652,-71246.881314
293.223086,4145.153275,2812.782580,-71706.538613
293.225645,9178.553681,2960.823768,-72166.195912
293.228204,6069.688724,2812.782580,-73085.510509
293.230763,3256.906145,-148.041188,-73391.948708
293.233322,10955.047942,1480.411884,-73698.386908
293.235880,7698.141797,1480.411884,-73698.386908
293.238439,3997.112087,-740.205942,-72932.291410
293.240998,8142.265362,-3108.864956,-71553.319513
293.243557,6365.771101,6809.894666,-71706.538613
293.246116,-4589.276840,-4145.153275,-71246.881314
293.248675,10066.800811,1480.411884,-72625.853210
293.251234,6069.688724,4885.359217,-74004.825107
293.253792,5921.647536,-1924.535449,-73391.948708
293.256351,16728.654289,7105.977043,-74004.825107
293.258910,1776.494261,-5181.441594,-72625.853210
293.261469,11991.336260,5773.606348,-71859.757712
293.264028,7550.100608,-592.164754,-71400.100414
293.266587,5181.441594,740.205942,-71706.538613
293.269146,8438.347739,4589.276840,-72932.291410
293.271705,-740.205942,-1776.494261,-73238.729609
293.274263,3701.029710,6069.688724,-73391.948708
293.276822,2960.823768,-1184.329507,-73238.729609
293.279381,1776.494261,-9474.636058,-73085.510509
293.281940,-3404.947333,-7254.018232,-73391.948708
293.284499,-3552.988522,-6069.688724,-72779.072310
293.287058,-3849.070898,-6069.688724,-72932.291410
293.289617,-3404.947333,0.000000,-73391.948708
293.292175,-296.082377,-296.082377,-73545.167808
293.294734,148.041188,-3849.070898,-73238.729609
293.297293,2812.782580,-2960.823768,-72625.853210
293.299852,1628.453072,-6957.935855,-72932.291410
293.302410,-3552.988522,-1628.453072,-73085.510509
293.304969,-1184.329507,-1628.453072,-73238.729609
293.307527,1480.411884,-4293.194464,-73085.510509
293.310085,8586.388927,3256.906145,-73545.167808
293.312643,-1480.411884,-10955.047942,-73545.167808
293.315201,148.041188,-3404.947333,-72932.291410
293.317760,-4293.194464,-1036.288319,-70787.224015
293.320318,-4145.153275,-4441.235652,-72166.195912
293.322876,-592.164754,-1628.453072,-73698.386908
293.325434,-2220.617826,-7402.059420,-75537.016103
293.327993,-2812.782580,-4441.235652,-73391.948708
293.330551,-1480.411884,-6957.935855,-72932.291410
293.333109,888.247130,-6957.935855,-71706.538613
293.335667,888.247130,-444.123565,-72012.976812
293.338225,1776.494261,2072.576638,-72932.291410
293.340784,11843.295072,8734.430116,-74158.044206
293.343342,5033.400406,-1184.329507,-72472.634111
293.345900,7105.977043,3849.070898,-72012.976812
293.348458,7994.224174,2812.782580,-71706.538613
293.351016,5329.482782,1036.288319,-72012.976812
293.353575,4589.276840,-296.082377,-72779.072310
293.356133,5625.565159,2812.782580,-73238.729609
293.358691,10066.800811,3108.864956,-73698.386908
293.361249,7254.018232,3849.070898,-73545.167808
293.363808,4145.153275,-2072.576638,-73851.606007
293.366366,-444.123565,-5921.647536,-72625.853210
293.368924,12879.583391,7402.059420,-72012.976812
293.371482,-3404.947333,3404.947333,-72166.195912
293.374040,6069.688724,-1924.535449,-72319.415011
293.376599,13619.789333,9622.677246,-74770.920605
293.379157,740.205942,-4589.276840,-73851.606007
293.381715,16876.695478,6217.729913,-73085.510509
293.384273,12879.583391,4145.153275,-72472.634111
293.386832,3552.988522,-1332.370696,-71246.881314
293.389390,9326.594869,4885.359217,-72472.634111
293.391948,1332.370696,3997.112087,-71706.538613
293.394506,5625.565159,148.041188,-72932.291410
293.397064,7105.977043,-888.247130,-72472.634111
293.399623,3256.906145,5329.482782,-73391.948708
293.402181,-2960.823768,-7698.141797,-73238.729609
293.404739,-2368.659014,-7698.141797,-73545.167808
293.407297,-3404.947333,-8586.388927,-72472.634111
293.409855,-3552.988522,-7846.182985,-73238.729609
293.412413,-3108.864956,-2812.782580,-72779.072310
293.414971,-4145.153275,-1924.535449,-73238.729609
293.417529,1184.329507,1184.329507,-74004.825107
293.420088,148.041188,-4293.194464,-72472.634111
293.422646,888.247130,-3256.906145,-73391.948708
293.425204,1332.370696,-4885.359217,-72012.976812
293.427762,296.082377,-4589.276840,-72319.415011
293.430320,7550.100608,-740.205942,-71706.538613
293.432878,-5033.400406,-2812.782580,-73391.948708
293.435436,4589.276840,-7846.182985,-72625.853210
293.437994,3108.864956,1628.453072,-73238.729609
293.440552,-6513.812290,-11103.089130,-71859.757712
293.443110,-148.041188,2072.576638,-72166.195912
293.445669,-888.247130,1184.329507,-71859.757712
293.448227,-4885.359217,-10510.924376,-73698.386908
293.450785,888.247130,-2072.576638,-74158.044206
293.453343,-3701.029710,-8586.388927,-74004.825107
293.455901,888.247130,-4885.359217,-72625.853210
293.458459,-740.205942,-3108.864956,-71400.100414
293.461017,3849.070898,444.123565,-71706.538613
293.463575,10214.842000,10807.006753,-73085.510509
293.466133,1776.494261,-1036.288319,-72779.072310
293.468691,10807.006753,4293.194464,-72166.195912
293.471249,9326.594869,1480.411884,-71859.757712
293.473808,8438.347739,4737.318029,-71706.538613
293.476366,3701.029710,-1332.370696,-72319.415011
293.478924,4737.318029,-1924.535449,-73085.510509
293.481482,9178.553681,8438.347739,-73391.948708
293.484040,4589.276840,-2516.700203,-74004.825107
293.486598,6069.688724,-444.123565,-73851.606007
293.489156,5477.523971,-2072.576638,-72472.634111
293.491714,10807.006753,4145.153275,-70787.224015
293.494272,-2516.700203,-444.123565,-70327.566716
293.496830,6661.853478,2072.576638,-71246.881314
293.499388,8586.388927,5033.400406,-74464.482406
293.501947,8438.347739,-296.082377,-73545.167808
293.504505,12435.459826,1924.535449,-74004.825107
293.507063,10214.842000,1332.370696,-71859.757712
293.509621,5329.482782,592.164754,-71706.538613
293.512179,7402.059420,3849.070898,-71859.757712
293.514737,1776.494261,4441.235652,-72932.291410
293.517295,5033.400406,1184.329507,-72472.634111
293.519853,3552.988522,-2368.659014,-73085.510509
293.522411,8586.388927,5477.523971,-73085.510509
293.524969,-888.247130,-7254.018232,-73085.510509
293.527527,-3256.906145,-10658.965565,-73085.510509
293.530085,-296.082377,-1480.411884,-72472.634111
293.532643,-7994.224174,-13027.624579,-72932.291410
293.535201,-444.123565,1332.370696,-73238.729609
293.537759,-4441.235652,-740.205942,-73698.386908
293.540317,-1332.370696,-3997.112087,-73545.167808
293.542875,2960.823768,740.205942,-72932.291410
293.545433,1628.453072,-2960.823768,-71859.757712
293.547991,-1036.288319,-3404.947333,-72472.634111
293.550549,-1184.329507,-1036.288319,-72166.195912
293.553107,1184.329507,-1628.453072,-73851.606007
293.555665,3849.070898,1036.288319,-73238.729609
293.558223,-3108.864956,-9622.677246,-75383.797003
293.560781,1332.370696,-2368.659014,-73238.729609
293.563339,-2960.823768,1924.535449,-71400.100414
293.565897,-5773.606348,-9326.594869,-71706.538613
293.568455,1036.288319,1332.370696,-73238.729609
293.571013,-3108.864956,-9178.553681,-74311.263306
293.573571,-2220.617826,-3997.112087,-74311.263306
293.576129,-1184.329507,-4145.153275,-73238.729609
293.578687,-888.247130,-8586.388927,-72472.634111
293.581245,1480.411884,1184.329507,-72012.976812
293.583803,4293.194464,5033.400406,-72779.072310
293.586361,13175.665768,5329.482782,-73545.167808
293.588879,9622.677246,2220.617826,-72319.415011
293.591397,6069.688724,3108.864956,-72472.634111
293.593915,7994.224174,5033.400406,-71093.662214
293.596434,4293.194464,-1480.411884,-72319.415011
293.598952,8142.265362,2960.823768,-73238.729609
293.601470,2516.700203,-1184.329507,-73391.948708
293.603988,5181.441594,1628.453072,-74311.263306
293.606506,6957.935855,1776.494261,-74158.044206
293.609024,5181.441594,-6365.771101,-73545.167808
293.611542,11251.130318,9770.718434,-72166.195912
293.614061,-2072.576638,-10066.800811,-71093.662214
293.616579,6069.688724,10362.883188,-72472.634111
293.619097,3701.029710,1184.329507,-71400.100414
293.621615,9770.718434,1332.370696,-74464.482406
293.624133,13471.748144,3701.029710,-74311.263306
293.626651,7254.018232,-1628.453072,-73238.729609
293.629170,11843.295072,4737.318029,-71400.100414
293.631688,4293.194464,-592.164754,-70634.004916
293.634206,4145.153275,6365.771101,-72166.195912
293.636724,2368.659014,2220.617826,-72779.072310
293.639242,4293.194464,-740.205942,-73851.606007
293.641760,7254.018232,5773.606348,-74004.825107
293.644278,-3404.947333,-10807.006753,-73085.510509
293.646797,888.247130,-4885.359217,-73238.729609
293.649315,-3404.947333,-6365.771101,-72472.634111
293.651833,-4145.153275,-13027.624579,-73545.167808
293.654351,-2368.659014,296.082377,-73545.167808
293.656869,-5773.606348,-3404.947333,-73391.948708
293.659387,444.123565,296.082377,-74158.044206
293.661905,888.247130,-1924.535449,-72625.853210
293.664424,888.247130,-4293.194464,-71553.319513
293.666942,4145.153275,-1332.370696,-71859.757712
293.669460,-2960.823768,148.041188,-71093.662214
293.671978,-740.205942,-2516.700203,-74158.044206
293.674496,2960.823768,2664.741391,-73391.948708
293.677014,-3997.112087,-7402.059420,-75383.797003
293.679532,-1628.453072,-9178.553681,-72166.195912
293.682051,-2812.782580,1776.494261,-71706.538613
293.684569,-6365.771101,-5625.565159,-71706.538613
293.687087,-2664.741391,-1184.329507,-73545.167808
293.689613,-1036.288319,-3404.947333,-73698.386908
293.692140,-3108.864956,-6809.894666,-74311.263306
293.694667,-148.041188,-1332.370696,-73545.167808
293.697193,-3404.947333,-10214.842000,-72932.291410
293.699720,1776.494261,2072.576638,-72012.976812
293.702247,8586.388927,7698.141797,-72166.195912
293.704773,8882.471304,2368.659014,-73085.510509
293.707300,10214.842000,4737.318029,-72166.195912
293.709826,6957.935855,-592.164754,-71859.757712
293.712353,8142.265362,5033.400406,-71706.538613
293.714880,5329.482782,296.082377,-71859.757712
293.717406,6069.688724,2516.700203,-73545.167808
293.719933,5773.606348,4293.194464,-73391.948708
293.722459,3849.070898,1924.535449,-75077.358804
293.724986,4145.153275,1628.453072,-74311.263306
293.727513,1628.453072,-2960.823768,-72932.291410
293.730039,8734.430116,444.123565,-72625.853210
293.732566,-2368.659014,592.164754,-71093.662214
293.735093,6513.812290,296.082377,-70480.785816
293.737619,10658.965565,6217.729913,-73698.386908
293.740146,7994.224174,-2812.782580,-74311.263306
293.742672,16580.613101,3997.112087,-75383.797003
293.745199,6365.771101,1628.453072,-71706.538613
293.747726,4441.235652,-592.164754,-71246.881314
293.750252,10510.924376,6217.729913,-70940.443115
293.752779,1924.535449,-1036.288319,-71706.538613
293.755306,6069.688724,3108.864956,-72625.853210
293.757832,5329.482782,8734.430116,-74158.044206
293.760359,-4145.153275,-9474.636058,-73698.386908
293.762885,3997.112087,-740.205942,-73238.729609
293.765412,-3997.112087,-11695.253884,-71859.757712
293.767939,-2960.823768,-6957.935855,-72932.291410
293.770465,-7402.059420,-7402.059420,-73238.729609
293.772992,-4441.235652,0.000000,-73698.386908
293.775518,296.082377,-888.247130,-74158.044206
293.778045,740.205942,-2368.659014,-72625.853210
293.780572,740.205942,-5181.441594,-71859.757712
293.783098,-1332.370696,-1628.453072,-72625.853210
293.785625,-1776.494261,-2368.659014,-70787.224015
293.788152,6217.729913,-3552.988522,-72625.853210
293.790647,740.205942,-4885.359217,-72472.634111
293.793142,3997.112087,-6365.771101,-73698.386908
293.795638,4293.194464,-2368.659014,-72472.634111
293.798133,-4293.194464,-4589.276840,-71706.538613
293.800629,-7402.059420,-3849.070898,-71859.757712
293.803124,-2072.576638,-1480.411884,-72779.072310
293.805620,-2960.823768,-4293.194464,-73698.386908
293.808115,-2072.576638,-6069.688724,-74311.263306
293.810611,-1036.288319,-3701.029710,-74004.825107
293.813106,-888.247130,-8882.471304,-72932.291410
293.815602,2220.617826,3256.906145,-71859.757712
293.818097,4293.194464,4885.359217,-72319.415011
293.820593,12731.542202,8734.430116,-72625.853210
293.823088,7254.018232,-1036.288319,-72012.976812
293.825584,11251.130318,3108.864956,-72625.853210
293.828079,7254.018232,3256.906145,-71400.100414
293.830575,4441.235652,2072.576638,-72319.415011
293.833070,5625.565159,-1184.329507,-72472.634111
293.835566,3701.029710,592.164754,-74004.825107
293.838061,10362.883188,6365.771101,-74158.044206
293.840557,1628.453072,1480.411884,-74924.139704
293.843052,4145.153275,5477.523971,-71859.757712
293.845548,2368.659014,-148.041188,-72012.976812
293.848043,5033.400406,592.164754,-71400.100414
293.850539,7698.141797,4441.235652,-69408.252119
293.853034,7994.224174,2516.700203,-72472.634111
293.855530,14508.036463,2812.782580,-74770.920605
293.858025,10066.800811,1480.411884,-74617.701505
293.860521,8290.306550,2516.700203,-72779.072310
293.863016,6513.812290,740.205942,-71093.662214
293.865511,7846.182985,4589.276840,-70634.004916
293.868007,3404.947333,0.000000,-71859.757712
293.870502,2516.700203,592.164754,-72932.291410
293.872998,2220.617826,6365.771101,-74004.825107
293.875493,-3849.070898,-11399.171507,-73085.510509
293.877989,3701.029710,-2812.782580,-73238.729609
293.880484,-3849.070898,-8290.306550,-72012.976812
293.882980,-3997.112087,-11843.295072,-72472.634111
293.885475,-3108.864956,-2220.617826,-72166.195912
293.887971,-6365.771101,-3256.906145,-74617.701505
293.890481,1036.288319,-2072.576638,-74464.482406
293.892990,1184.329507,-2368.659014,-72779.072310
293.895500,444.123565,-4293.194464,-72166.195912
293.898010,5477.523971,-6809.894666,-70480.785816
293.900520,5625.565159,4589.276840,-72166.195912
293.903029,-6513.812290,444.123565,-71706.538613
293.905539,-7105.977043,-13471.748144,-75077.358804
293.908049,7254.018232,5921.647536,-75230.577904
293.910559,-5329.482782,-11103.089130,-73391.948708
293.913068,-8290.306550,-15544.324782,-72012.976812
293.915578,3552.988522,6069.688724,-70787.224015
293.918088,-8290.306550,-9622.677246,-72779.072310
293.920598,-3108.864956,-148.041188,-74617.701505
293.923107,-2220.617826,-7550.100608,-75077.358804
293.925617,2072.576638,-4737.318029,-74158.044206
293.928127,1628.453072,-4885.359217,-72012.976812
293.930637,-1184.329507,-296.082377,-71400.100414
293.933146,8882.471304,8734.430116,-72166.195912
293.935656,4145.153275,2368.659014,-72779.072310
293.938166,13767.830521,4737.318029,-72166.195912
293.940676,10214.842000,148.041188,-72319.415011
293.943185,8142.265362,5921.647536,-72012.976812
293.945695,2812.782580,444.123565,-72625.853210
293.948205,4441.235652,1332.370696,-72932.291410
293.950715,5329.482782,6513.812290,-73238.729609
293.953224,5477.523971,3256.906145,-74311.263306
293.955734,5329.482782,740.205942,-73851.606007
293.958244,7698.141797,-1924.535449,-73238.729609
293.960754,5921.647536,9030.512492,-72472.634111
293.963263,-2664.741391,-3108.864956,-69101.813920
293.965773,7994.224174,7846.182985,-72012.976812
293.968283,7994.224174,2516.700203,-73698.386908
293.970793,7550.100608,-592.164754,-75537.016103
293.973302,14952.160028,6217.729913,-74464.482406
293.975812,5329.482782,-2812.782580,-71093.662214
293.978322,7846.182985,6513.812290,-71400.100414
293.980832,1628.453072,1332.370696,-70634.004916
293.983341,1776.494261,1776.494261,-72779.072310
293.985851,5181.441594,3108.864956,-73545.167808
293.988361,5033.400406,-2664.741391,-74617.701505
293.990845,5773.606348,-3256.906145,-73238.729609
293.993329,-5625.565159,-7698.141797,-72472.634111
293.995814,-5773.606348,-6661.853478,-71553.319513
293.998298,-5773.606348,-7994.224174,-72012.976812
294.000782,-2960.823768,-1036.288319,-73851.606007
294.003267,444.123565,-1036.288319,-75383.797003
294.005751,-1332.370696,-2812.782580,-74464.482406
294.008235,296.082377,-2220.617826,-72319.415011
294.010720,-888.247130,-9178.553681,-71706.538613
294.013204,4293.194464,-5329.482782,-72166.195912
294.015688,-1036.288319,-2368.659014,-71553.319513
294.018173,-2516.700203,-11991.336260,-75077.358804
294.020657,11695.253884,7550.100608,-73698.386908
294.023141,-7994.224174,-13027.624579,-74770.920605
294.025626,-1924.535449,-6661.853478,-72779.072310
294.028110,-1332.370696,4293.194464,-70480.785816
294.030594,-10066.800811,-12139.377449,-72319.415011
294.033078,-1036.288319,444.123565,-74924.139704
294.035563,-1924.535449,-4293.194464,-75690.235202
294.038047,444.123565,-6661.853478,-74924.139704
294.040531,1924.535449,-4293.194464,-72012.976812
294.043016,1184.329507,-592.164754,-71553.319513
294.045500,11991.336260,10510.924376,-71400.100414
294.047984,5329.482782,2960.823768,-72779.072310
294.050469,10362.883188,3997.112087,-72779.072310
294.052953,9770.718434,444.123565,-72625.853210
294.055437,9474.636058,5181.441594,-72319.415011
294.057922,3108.864956,-444.123565,-72625.853210
294.060406,4293.194464,1184.329507,-73085.510509
294.062890,3404.947333,5921.647536,-72319.415011
294.065375,3552.988522,6809.894666,-75077.358804
294.067859,10658.965565,444.123565,-74924.139704
294.070343,1628.453072,3701.029710,-73391.948708
294.072827,6809.894666,740.205942,-71553.319513
294.075312,-888.247130,3849.070898,-70787.224015
294.077796,2664.741391,5477.523971,-71400.100414
294.080280,11991.336260,6217.729913,-73851.606007
294.082765,10658.965565,-2664.741391,-75690.235202
294.085249,17172.777854,7105.977043,-74617.701505
294.087733,7698.141797,1776.494261,-71553.319513
294.090235,3108.864956,4145.153275,-70174.347617
294.092737,1628.453072,3404.947333,-70480.785816
294.095239,296.082377,-1480.411884,-71859.757712
294.097742,10066.800811,7254.018232,-73698.386908
294.100244,-1628.453072,-11695.253884,-74464.482406
294.102746,1332.370696,-2812.782580,-74464.482406
294.105248,-3552.988522,-7254.018232,-71859.757712
294.107750,-6217.729913,-11991.336260,-71706.538613
294.110252,-3108.864956,296.082377,-71859.757712
294.112754,-3997.112087,-2516.700203,-73391.948708
294.115256,-1184.329507,-3701.029710,-75077.358804
294.117758,3108.864956,-2220.617826,-74311.263306
294.120260,740.205942,-1036.288319,-72472.634111
294.122762,1924.535449,-3108.864956,-70787.224015
294.125264,-740.205942,296.082377,-71400.100414
294.127766,148.041188,-1628.453072,-71859.757712
294.130268,740.205942,-4293.194464,-74924.139704
294.132770,2220.617826,-5477.523971,-75077.358804
294.135272,-1332.370696,-5625.565159,-73545.167808
294.137774,-5329.482782,-5033.400406,-70787.224015
294.140276,-6217.729913,296.082377,-71093.662214
294.142778,-9474.636058,-6069.688724,-72932.291410
294.145280,-3997.112087,-8290.306550,-75690.235202
294.147782,1480.411884,-888.247130,-75077.358804
294.150284,1184.329507,-9918.759623,-73851.606007
294.152786,5181.441594,3552.988522,-71553.319513
294.155288,6513.812290,5625.565159,-71093.662214
294.157791,6217.729913,2516.700203,-72012.976812
294.160293,13471.748144,7105.977043,-72166.195912
294.162795,7105.977043,-1776.494261,-72779.072310
294.165297,10214.842000,6957.935855,-72779.072310
294.167799,3552.988522,0.000000,-72319.415011
294.170301,4885.359217,-148.041188,-73238.729609
294.172803,2072.576638,0.000000,-72166.195912
294.175305,6957.935855,8586.388927,-74004.825107
294.177807,9474.636058,3108.864956,-74004.825107
294.180309,-2960.823768,5329.482782,-74004.825107
294.182811,444.123565,-2516.700203,-72166.195912
294.185313,6365.771101,4441.235652,-71706.538613
294.187815,4737.318029,3108.864956,-70327.566716
294.190331,5033.400406,148.041188,-73545.167808
294.192848,20577.725188,6809.894666,-74924.139704
294.195365,9622.677246,-444.123565,-74464.482406
294.197882,7846.182985,0.000000,-73238.729609
294.200400,9326.594869,3701.029710,-70787.224015
294.202917,-1184.329507,-1924.535449,-70174.347617
294.205434,8438.347739,1480.411884,-72012.976812
294.207951,5477.523971,6069.688724,-73545.167808
294.210468,-5181.441594,-13027.624579,-74924.139704
294.212985,2812.782580,-1184.329507,-75077.358804
294.215502,-3108.864956,-11695.253884,-72779.072310
294.218019,-2072.576638,-6661.853478,-71553.319513
294.220536,-9030.512492,-5033.400406,-71859.757712
294.223054,-4885.359217,-2368.659014,-73391.948708
294.225571,1036.288319,-2664.741391,-75077.358804
294.228088,3256.906145,-4293.194464,-74158.044206
294.230605,3404.947333,-8290.306550,-72319.415011
294.233122,-444.123565,-11251.130318,-71859.757712
294.235639,3108.864956,2960.823768,-70327.566716
294.238156,-6661.853478,-8438.347739,-71859.757712
294.240673,4441.235652,-6513.812290,-76303.111601
294.243191,4737.318029,3108.864956,-75077.358804
294.245708,-6365.771101,-10510.924376,-73085.510509
294.248225,-4589.276840,-3256.906145,-72319.415011
294.250742,-6069.688724,-5625.565159,-70174.347617
294.253259,-3997.112087,-3256.906145,-72779.072310
294.255776,-2516.700203,-5033.400406,-73698.386908
294.258293,-444.123565,-5477.523971,-76303.111601
294.260810,3256.906145,-148.041188,-73391.948708
294.263327,4293.194464,296.082377,-71553.319513
294.265845,10955.047942,7994.224174,-71093.662214
294.268362,3849.070898,3552.988522,-71553.319513
294.270879,10510.924376,5921.647536,-72166.195912
294.273396,11695.253884,-148.041188,-72319.415011
294.275913,9178.553681,3849.070898,-72932.291410
294.278430,4885.359217,740.205942,-73238.729609
294.280947,3849.070898,1332.370696,-73085.510509
294.283464,740.205942,2812.782580,-73238.729609
294.285982,3849.070898,5477.523971,-73391.948708
294.288499,6365.771101,444.123565,-72932.291410
294.290992,5625.565159,2368.659014,-74158.044206
294.293485,2812.782580,7105.977043,-73238.729609
294.295978,-1036.288319,1480.411884,-71706.538613
294.298472,3849.070898,2812.782580,-71859.757712
294.300965,13471.748144,6069.688724,-73085.510509
294.303458,10955.047942,-1184.329507,-74770.920605
294.305951,14211.954086,1184.329507,-74464.482406
294.308445,8734.430116,2220.617826,-72166.195912
294.310938,5329.482782,4737.318029,-70787.224015
294.313431,-148.041188,148.041188,-70787.224015
294.315925,-888.247130,2516.700203,-72319.415011
294.318418,9030.512492,-6809.894666,-73698.386908
294.320911,5477.523971,-5921.647536,-74770.920605
294.323404,-4885.359217,-10066.800811,-73545.167808
294.325898,-3404.947333,-4589.276840,-72012.976812
294.328391,-8438.347739,-8290.306550,-72012.976812
294.330884,-3552.988522,1184.329507,-73238.729609
294.333377,-444.123565,-1332.370696,-74464.482406
294.335871,-296.082377,-2812.782580,-74770.920605
294.338364,-148.041188,-8438.347739,-74158.044206
294.340857,-1036.288319,-8734.430116,-72779.072310
294.343350,2368.659014,2960.823768,-70327.566716
294.345844,-296.082377,-6217.729913,-71553.319513
294.348337,3552.988522,-148.041188,-74464.482406
294.350830,1924.535449,-3256.906145,-74311.263306
294.353323,-148.041188,-11991.336260,-74924.139704
294.355817,-2960.823768,-1924.535449,-72319.415011
294.358310,-11547.212695,-8734.430116,-71400.100414
294.360803,-2368.659014,2368.659014,-72166.195912
294.363296,-6809.894666,-8586.388927,-73851.606007
294.365790,740.205942,-148.041188,-75230.577904
294.368283,-296.082377,-7846.182985,-75077.358804
294.370776,4145.153275,-888.247130,-73238.729609
294.373269,7994.224174,7698.141797,-71400.100414
294.375763,6513.812290,2368.659014,-71553.319513
294.378256,12139.377449,7994.224174,-72012.976812
294.380749,10066.800811,-296.082377,-72012.976812
294.383242,9474.636058,3701.029710,-73085.510509
294.385736,5033.400406,1332.370696,-72779.072310
294.388229,4589.276840,-888.247130,-72932.291410
294.390705,4885.359217,-2664.741391,-73085.510509
294.393180,5625.565159,15692.365970,-74004.825107
294.395656,3552.988522,3849.070898,-73851.606007
294.398132,-1036.288319,-592.164754,-74158.044206
294.400608,4589.276840,2516.700203,-73391.948708
294.403083,6069.688724,6957.935855,-69714.690318
294.405559,4145.153275,-1628.453072,-70480.785816
294.408035,16728.654289,7698.141797,-72779.072310
294.410510,7698.141797,592.164754,-73545.167808
294.412986,11695.253884,-1184.329507,-74464.482406
294.415462,14656.077652,7402.059420,-72472.634111
294.417937,3849.070898,-3256.906145,-70634.004916
294.420413,3552.988522,4145.153275,-71400.100414
294.422889,-3701.029710,6661.853478,-72625.853210
294.425365,-2072.576638,-3997.112087,-73851.606007
294.427840,6217.729913,-4885.359217,-74464.482406
294.430316,-2960.823768,-12435.459826,-73698.386908
294.432792,-2072.576638,-2812.782580,-73085.510509
294.435267,-8142.265362,-3552.988522,-71706.538613
294.437743,-6365.771101,-1184.329507,-73238.729609
294.440219,296.082377,1036.288319,-74464.482406
294.442694,444.123565,-5329.482782,-74158.044206
294.445170,6365.771101,-3256.906145,-72319.415011
294.447646,-1776.494261,-888.247130,-72012.976812
294.450122,-2664.741391,-5773.606348,-69714.690318
294.452597,5921.647536,-1480.411884,-71706.538613
294.455073,-1776.494261,-740.205942,-75383.797003
294.457549,-296.082377,-10066.800811,-74770.920605
294.460024,1776.494261,-1628.453072,-74004.825107
294.462500,-8290.306550,-7550.100608,-71706.538613
294.464976,-7402.059420,-3404.947333,-71400.100414
294.467452,-4737.318029,-2368.659014,-71400.100414
294.469927,-3404.947333,-7550.100608,-74311.263306
294.472403,3256.906145,-6513.812290,-75383.797003
294.474879,3701.029710,-3108.864956,-73851.606007
294.477354,3404.947333,1184.329507,-72625.853210
294.479830,10362.883188,8142.265362,-71553.319513
294.482306,4737.318029,3256.906145,-70634.004916
294.484781,13471.748144,6957.935855,-71706.538613
294.487257,10955.047942,444.123565,-71706.538613
294.489755,10066.800811,6513.812290,-71859.757712
294.492254,2072.576638,-740.205942,-73851.606007
294.494752,2516.700203,-1184.329507,-73545.167808
294.497250,4885.359217,1480.411884,-72625.853210
294.499749,6513.812290,8586.388927,-74617.701505
294.502247,5773.606348,-5181.441594,-73238.729609
294.504745,7402.059420,4589.276840,-74464.482406
294.507243,296.082377,3997.112087,-72625.853210
294.509742,740.205942,-4145.153275,-70634.004916
294.512240,10214.842000,7402.059420,-72319.415011
294.514738,13175.665768,3404.947333,-73851.606007
294.517237,14063.912898,-148.041188,-74617.701505
294.519735,11103.089130,1480.411884,-73085.510509
294.522233,6809.894666,5477.523971,-71706.538613
294.524732,3701.029710,148.041188,-71093.662214
294.527230,4293.194464,-740.205942,-70787.224015
294.529728,7846.182985,1480.411884,-73085.510509
294.532226,-2072.576638,-9770.718434,-74004.825107
294.534725,-4441.235652,-5921.647536,-74924.139704
294.537223,-2368.659014,-6217.729913,-73238.729609
294.539721,-3701.029710,-14211.954086,-72625.853210
294.542220,-2960.823768,-148.041188,-72166.195912
294.544718,-5773.606348,-148.041188,-72779.072310
294.547216,-2812.782580,-2368.659014,-74464.482406
294.549714,3552.988522,-2516.700203,-73545.167808
294.552213,1332.370696,-740.205942,-73391.948708
294.554711,-3256.906145,-2220.617826,-70634.004916
294.557209,-296.082377,-9178.553681,-70787.224015
294.559708,4293.194464,3701.029710,-72625.853210
294.562206,-740.205942,-4145.153275,-74770.920605
294.564704,148.041188,-10955.047942,-75537.016103
294.567203,-444.123565,-592.164754,-73085.510509
294.569701,-11547.212695,-10362.883188,-71859.757712
294.572199,-5181.441594,-444.123565,-71400.100414
294.574697,-5477.523971,-6365.771101,-72932.291410
294.577196,148.041188,-2664.741391,-74617.701505
294.579694,1480.411884,-6365.771101,-74924.139704
294.582192,2664.741391,148.041188,-74004.825107
294.584691,10510.924376,5773.606348,-72012.976812
294.587189,10658.965565,1776.494261,-70480.785816
294.589671,12879.583391,5477.523971,-70787.224015
294.592153,9326.594869,-444.123565,-71859.757712
294.594635,9622.677246,6957.935855,-72625.853210
294.597116,2812.782580,-592.164754,-73545.167808
294.599598,5773.606348,-2812.782580,-74158.044206
294.602080,7698.141797,3256.906145,-73391.948708
294.604562,296.082377,10214.842000,-73698.386908
294.607044,592.164754,-1628.453072,-73238.729609
294.609526,9178.553681,148.041188,-73238.729609
294.612008,6069.688724,11843.295072,-72932.291410
294.614490,-888.247130,-6217.729913,-70480.785816
294.616972,10955.047942,5773.606348,-72319.415011
294.619454,12879.583391,6513.812290,-71859.757712
294.621935,9622.677246,-1036.288319,-74770.920605
294.624417,14359.995275,3849.070898,-73698.386908
294.626899,6069.688724,4737.318029,-72012.976812
294.629381,2812.782580,-888.247130,-71246.881314
294.631863,4589.276840,2664.741391,-71246.881314
294.634345,-1036.288319,3997.112087,-72319.415011
294.636827,-4589.276840,-11103.089130,-74464.482406
294.639309,888.247130,-3108.864956,-74311.263306
294.641791,-2072.576638,-10510.924376,-73545.167808
294.644273,-3552.988522,-8882.471304,-72625.853210
294.646754,-6661.853478,-1776.494261,-71859.757712
294.649236,-2220.617826,1332.370696,-73391.948708
294.651718,1332.370696,-1628.453072,-73698.386908
294.654200,1776.494261,-3552.988522,-74311.263306
294.656682,3849.070898,-8142.265362,-72472.634111
294.659164,1776.494261,3701.029710,-72012.976812
294.661646,740.205942,-4441.235652,-69714.690318
294.664128,3404.947333,-1184.329507,-71706.538613
294.666610,2960.823768,0.000000,-74158.044206
294.669092,-1332.370696,-9030.512492,-74158.044206
294.671573,-4589.276840,-3404.947333,-73851.606007
294.674055,-11251.130318,-7402.059420,-71859.757712
294.676537,-5181.441594,-1776.494261,-72625.853210
294.679019,-3701.029710,-6513.812290,-72779.072310
294.681501,592.164754,-5773.606348,-73851.606007
294.683983,1332.370696,-1332.370696,-74311.263306
294.686465,6661.853478,4293.194464,-72472.634111
294.688970,8438.347739,3997.112087,-71859.757712
294.691474,10214.842000,5033.400406,-70940.443115
294.693979,11695.253884,5773.606348,-70940.443115
294.696484,10510.924376,592.164754,-71859.757712
294.698989,8882.471304,5329.482782,-72932.291410
294.701493,3997.112087,-740.205942,-73238.729609
294.703998,1776.494261,1036.288319,-74464.482406
294.706503,3849.070898,5477.523971,-72932.291410
294.709008,5773.606348,8586.388927,-73391.948708
294.711513,3404.947333,-5921.647536,-73851.606007
294.714017,17912.983796,7254.018232,-73238.729609
294.716522,-888.247130,-2664.741391,-72472.634111
294.719027,4885.359217,2072.576638,-72012.976812
294.721532,10807.006753,8290.306550,-71553.319513
294.724036,8142.265362,2812.782580,-72932.291410
294.726541,9918.759623,2516.700203,-74770.920605
294.729046,14508.036463,-296.082377,-73238.729609
294.731551,9326.594869,-888.247130,-72472.634111
294.734056,4293.194464,1924.535449,-71246.881314
294.736560,-5033.400406,8290.306550,-71706.538613
294.739065,-3404.947333,-5329.482782,-74004.825107
294.741570,5477.523971,-7550.100608,-73545.167808
294.744075,-3256.906145,-9918.759623,-74158.044206
294.746580,148.041188,-10510.924376,-73085.510509
294.749084,-5181.441594,-3404.947333,-72012.976812
294.751589,-10362.883188,-1332.370696,-73085.510509
294.754094,-1480.411884,888.247130,-74158.044206
294.756599,2960.823768,-4589.276840,-73238.729609
294.759103,6809.894666,-6365.771101,-72166.195912
294.761608,7254.018232,-8586.388927,-73238.729609
294.764113,-148.041188,592.164754,-69714.690318
294.766618,-4737.318029,-12583.501014,-72166.195912
294.769123,7105.977043,1924.535449,-72472.634111
294.771627,-3256.906145,-5773.606348,-74158.044206
294.774132,-3108.864956,-12287.418637,-74464.482406
294.776637,-1628.453072,592.164754,-72166.195912
294.779142,-10658.965565,-12139.377449,-72012.976812
294.781646,-3701.029710,-6217.729913,-73238.729609
294.784151,888.247130,-1184.329507,-73085.510509
294.786656,-3108.864956,-9622.677246,-75077.358804
294.789180,7105.977043,6661.853478,-74158.044206
294.791704,8734.430116,5625.565159,-71706.538613
294.794227,12879.583391,2368.659014,-71553.319513
294.796751,12731.542202,5921.647536,-70940.443115
294.799275,7550.100608,2368.659014,-71400.100414
294.801799,9030.512492,6957.935855,-72012.976812
294.804323,2812.782580,-3404.947333,-72932.291410
294.806846,4885.359217,-888.247130,-74158.044206
294.809370,6513.812290,8142.265362,-72625.853210
294.811894,3256.906145,8290.306550,-72932.291410
294.814418,2812.782580,-4737.318029,-74158.044206
294.816941,9918.759623,10066.800811,-73391.948708
294.819465,3552.988522,-2960.823768,-70634.004916
294.821989,6069.688724,444.123565,-72166.195912
294.824513,10066.800811,4737.318029,-72166.195912
294.827037,9030.512492,3404.947333,-73238.729609
294.829560,14063.912898,5329.482782,-73698.386908
294.832084,10510.924376,-1776.494261,-72319.415011
294.834608,13915.871710,3997.112087,-72012.976812
294.837132,1036.288319,1332.370696,-70787.224015
294.839656,-1184.329507,7254.018232,-72319.415011
294.842179,-5477.523971,-8142.265362,-73698.386908
294.844703,2664.741391,-5033.400406,-74004.825107
294.847227,-4145.153275,-11251.130318,-73851.606007
294.849751,-1628.453072,-7105.977043,-72472.634111
294.852275,-7846.182985,-6365.771101,-71859.757712
294.854798,-5181.441594,1184.329507,-72932.291410
294.857322,-1628.453072,-1628.453072,-73391.948708
294.859846,1628.453072,-4885.359217,-73391.948708
294.862370,3701.029710,1924.535449,-73391.948708
294.864893,-888.247130,-5773.606348,-71706.538613
294.867417,-1628.453072,-7846.182985,-72625.853210
294.869941,6217.729913,7402.059420,-70940.443115
294.872465,-4145.153275,-10066.800811,-72779.072310
294.874989,2812.782580,-1776.494261,-74770.920605
294.877512,-3552.988522,-3108.864956,-74004.825107
294.880036,-13027.624579,-13175.665768,-73545.167808
294.882560,-4885.359217,-296.082377,-72012.976812
294.885084,-6809.894666,-5625.565159,-72779.072310
294.887608,888.247130,-3849.070898,-73851.606007
294.890112,1036.288319,-2960.823768,-73545.167808
294.892617,4293.194464,0.000000,-73545.167808
294.895122,13471.748144,4885.359217,-72319.415011
294.897626,7994.224174,6513.812290,-71706.538613
294.900131,9622.677246,5477.523971,-71553.319513
294.902636,8882.471304,1184.329507,-71553.319513
294.905141,9474.636058,4885.359217,-72166.195912
294.907645,3404.947333,-148.041188,-73238.729609
294.910150,3108.864956,-1332.370696,-74311.263306
294.912655,7254.018232,6661.853478,-72932.291410
294.915159,-3256.906145,-4293.194464,-73698.386908
294.917664,2664.741391,888.247130,-74617.701505
294.920169,9030.512492,2220.617826,-73391.948708
294.922674,3552.988522,2516.700203,-73085.510509
294.925178,5921.647536,2664.741391,-71093.662214
294.927683,7254.018232,2368.659014,-71553.319513
294.930188,14508.036463,2368.659014,-73545.167808
294.932692,14211.954086,2960.823768,-72932.291410
294.935197,7550.100608,-148.041188,-73238.729609
294.937702,7698.141797,3552.988522,-71400.100414
294.940207,1480.411884,-888.247130,-71859.757712
294.942711,2812.782580,6217.729913,-73085.510509
294.945216,-6661.853478,-13767.830521,-72779.072310
294.947721,592.164754,-3997.112087,-74770.920605
294.950225,-4885.359217,-7550.100608,-73238.729609
294.952730,-5477.523971,-10955.047942,-73238.729609
294.955235,-4441.235652,-2368.659014,-72625.853210
294.957740,-3701.029710,0.000000,-73391.948708
294.960244,-148.041188,-1480.411884,-74158.044206
294.962749,3701.029710,-2368.659014,-72472.634111
294.965254,444.123565,148.041188,-72166.195912
294.967758,-2516.700203,-20873.807564,-70634.004916
294.970263,12583.501014,4441.235652,-71859.757712
294.972768,-1628.453072,-1480.411884,-71246.881314
294.975273,-9178.553681,-17616.901420,-74770.920605
294.977777,4737.318029,-2368.659014,-74924.139704
294.980282,-4589.276840,-2812.782580,-73238.729609
294.982787,-11103.089130,-13323.706956,-72779.072310
294.985291,-2220.617826,4441.235652,-72166.195912
294.987796,-7994.224174,-10362.883188,-73545.167808
294.990320,2220.617826,-888.247130,-74770.920605
294.992844,4145.153275,-740.205942,-73238.729609
294.995368,11251.130318,5773.606348,-72319.415011
294.997893,9622.677246,888.247130,-72319.415011
295.000417,12435.459826,5477.523971,-70940.443115
295.002941,10955.047942,3108.864956,-70940.443115
295.005465,9770.718434,5625.565159,-72319.415011
295.007989,3552.988522,-4589.276840,-72166.195912
295.010513,6217.729913,2960.823768,-73698.386908
295.013037,3552.988522,1628.453072,-73085.510509
295.015562,5033.400406,5773.606348,-73545.167808
295.018086,888.247130,-3256.906145,-74158.044206
295.020610,11103.089130,7402.059420,-73545.167808
295.023134,2072.576638,2072.576638,-72472.634111
295.025658,4293.194464,-444.123565,-71706.538613
295.028182,9326.594869,5033.400406,-71553.319513
295.030706,11251.130318,4441.235652,-73238.729609
295.033231,14211.954086,5181.441594,-74004.825107
295.035755,9474.636058,1924.535449,-73545.167808
295.038279,6365.771101,296.082377,-71553.319513
295.040803,6217.729913,740.205942,-71400.100414
295.043327,2812.782580,8142.265362,-73238.729609
295.045851,-7402.059420,-13323.706956,-73085.510509
295.048375,1480.411884,-1332.370696,-74004.825107
295.050899,-5033.400406,-7105.977043,-73238.729609
295.053424,-6513.812290,-12139.377449,-72932.291410
295.055948,-5625.565159,-3256.906145,-72319.415011
295.058472,-2664.741391,148.041188,-73085.510509
295.060996,444.123565,-2220.617826,-73238.729609
295.063520,3552.988522,-3256.906145,-73851.606007
295.066044,6957.935855,-1184.329507,-71400.100414
295.068568,-888.247130,0.000000,-72012.976812
295.071108,-4441.235652,-6365.771101,-71706.538613
295.073648,-3849.070898,-9030.512492,-74158.044206
295.076188,3997.112087,4441.235652,-74004.825107
295.078728,-7105.977043,-14211.954086,-74311.263306
295.081268,-1776.494261,-4885.359217,-74004.825107
295.083808,-7698.141797,-3256.906145,-71706.538613
295.086348,-8586.388927,-9622.677246,-72932.291410
295.088888,-444.123565,3997.112087,-73238.729609
295.091428,-4885.359217,-12583.501014,-73698.386908
295.093968,4885.359217,3701.029710,-74464.482406
295.096508,12287.418637,6217.729913,-72166.195912
295.099048,9770.718434,2516.700203,-71859.757712
295.101588,14804.118840,7846.182985,-71400.100414
295.104128,7254.018232,-444.123565,-71093.662214
295.106668,10214.842000,7402.059420,-71553.319513
295.109208,4293.194464,-2072.576638,-72319.415011
295.111748,4293.194464,-3701.029710,-73545.167808
295.114288,8438.347739,8438.347739,-72932.291410
295.116828,-740.205942,-4737.318029,-74617.701505
295.119368,12879.583391,4441.235652,-73085.510509
295.121907,148.041188,2368.659014,-72779.072310
295.124447,4145.153275,2072.576638,-72166.195912
295.126987,5773.606348,4441.235652,-72319.415011
295.129527,2812.782580,-1036.288319,-71400.100414
295.132067,12731.542202,1332.370696,-73238.729609
295.134607,18357.107362,5773.606348,-73545.167808
295.137147,6957.935855,-1184.329507,-72166.195912
295.139687,8586.388927,5477.523971,-71859.757712
295.142227,-2960.823768,-1480.411884,-71553.319513
295.144767,8142.265362,6069.688724,-72779.072310
295.147307,-5625.565159,-14211.954086,-73545.167808
295.149847,-3108.864956,-5181.441594,-74464.482406
295.152387,-3997.112087,-740.205942,-73545.167808
295.154927,-7550.100608,-16580.613101,-72932.291410
295.157467,-2960.823768,1776.494261,-72472.634111
295.160007,-1924.535449,-2072.576638,-73238.729609
295.162547,3404.947333,-3404.947333,-73698.386908
295.165087,1924.535449,444.123565,-73851.606007
295.167627,-148.041188,-4145.153275,-71706.538613
295.170167,-888.247130,-3404.947333,-72012.976812
295.172685,4145.153275,-1776.494261,-70940.443115
295.175204,-1184.329507,-5033.400406,-72932.291410
295.177724,740.205942,-2368.659014,-74464.482406
295.180243,-2664.741391,-8438.347739,-74158.044206
295.182762,-7402.059420,-7402.059420,-72932.291410
295.185282,-7994.224174,-2220.617826,-72166.195912
295.187801,-6661.853478,-5329.482782,-72625.853210
295.190321,1036.288319,-3849.070898,-73238.729609
295.192840,3849.070898,-296.082377,-74004.825107
295.195360,7254.018232,3701.029710,-72932.291410
295.197879,13323.706956,6365.771101,-72166.195912
295.200399,8882.471304,2516.700203,-70327.566716
295.202918,13027.624579,4885.359217,-71553.319513
295.205438,11695.253884,5477.523971,-71706.538613
295.207957,6069.688724,-740.205942,-72012.976812
295.210476,5033.400406,1036.288319,-73545.167808
295.212996,1924.535449,-888.247130,-74617.701505
295.215515,1628.453072,2220.617826,-75690.235202
295.218035,8290.306550,-2072.576638,-73238.729609
295.220554,4441.235652,7698.141797,-73698.386908
295.223074,4589.276840,1924.535449,-71246.881314
295.225593,6217.729913,5329.482782,-72319.415011
295.228113,3404.947333,-2072.576638,-71553.319513
295.230632,10214.842000,2220.617826,-72932.291410
295.233151,20133.601622,5625.565159,-73085.510509
295.235671,7550.100608,-1036.288319,-72932.291410
295.238190,9770.718434,2664.741391,-71859.757712
295.240710,4737.318029,1184.329507,-71706.538613
295.243229,1628.453072,5181.441594,-72166.195912
295.245749,-1332.370696,-10362.883188,-73238.729609
295.248268,592.164754,-5921.647536,-74158.044206
295.250788,-5329.482782,-7105.977043,-73085.510509
295.253307,-8882.471304,-9622.677246,-73085.510509
295.255827,-4441.235652,-3256.906145,-72012.976812
295.258346,-2664.741391,0.000000,-73391.948708
295.260865,444.123565,-2368.659014,-74004.825107
295.263385,3997.112087,-2368.659014,-73851.606007
295.265904,5477.523971,-296.082377,-71093.662214
295.268424,-592.164754,-148.041188,-71400.100414
295.270943,1184.329507,-3997.112087,-71093.662214
295.273463,888.247130,-6217.729913,-72319.415011
295.275982,3108.864956,-4441.235652,-74464.482406
295.278502,-444.123565,-5625.565159,-74158.044206
295.281021,-7846.182985,-9178.553681,-73085.510509
295.283541,-7994.224174,-4293.194464,-72932.291410
295.286060,-6513.812290,-2072.576638,-72625.853210
295.288579,-3404.947333,-8142.265362,-74770.920605
295.291099,3404.947333,3108.864956,-74004.825107
295.293603,3701.029710,1036.288319,-73085.510509
295.296108,16284.530724,5625.565159,-72472.634111
295.298612,9770.718434,2664.741391,-70940.443115
295.301116,10658.965565,4885.359217,-70787.224015
295.303621,12583.501014,7254.018232,-70480.785816
295.306125,6069.688724,-740.205942,-72012.976812
295.308629,5033.400406,-888.247130,-73851.606007
295.311134,5033.400406,4589.276840,-73238.729609
295.313638,7254.018232,8586.388927,-73545.167808
295.316142,-148.041188,2516.700203,-74004.825107
295.318647,4145.153275,-8882.471304,-75077.358804
295.321151,14211.954086,14804.118840,-72779.072310
295.323656,-1480.411884,-2960.823768,-70634.004916
295.326160,10214.842000,740.205942,-71859.757712
295.328664,20133.601622,10066.800811,-73238.729609
295.331169,8438.347739,1184.329507,-73391.948708
295.333673,9622.677246,888.247130,-73698.386908
295.336177,9770.718434,3256.906145,-71706.538613
295.338682,4589.276840,-888.247130,-71706.538613
295.341186,5033.400406,7994.224174,-72012.976812
295.343690,-6957.935855,-13027.624579,-72779.072310
295.346195,3701.029710,-1776.494261,-74004.825107
295.348699,-4441.235652,-6809.894666,-73391.948708
295.351204,-7105.977043,-12731.542202,-73391.948708
295.353708,-5181.441594,444.123565,-72625.853210
295.356212,-4293.194464,-4737.318029,-73238.729609
295.358717,4589.276840,740.205942,-73851.606007
295.361221,2368.659014,-1776.494261,-73391.948708
295.363725,-888.247130,-7254.018232,-72012.976812
295.366230,296.082377,-4885.359217,-71246.881314
295.368734,3108.864956,740.205942,-70480.785816
295.371238,-4589.276840,-7846.182985,-73238.729609
295.373763,1628.453072,-2368.659014,-74617.701505
295.376287,-1776.494261,-8142.265362,-74004.825107
295.378812,-7254.018232,-9178.553681,-73391.948708
295.381337,-8142.265362,296.082377,-71400.100414
295.383861,-8438.347739,-8586.388927,-72932.291410
295.386386,-1924.535449,-3701.029710,-74311.263306
295.388910,4589.276840,1036.288319,-73545.167808
295.391435,8734.430116,4589.276840,-73545.167808
295.393959,10658.965565,1924.535449,-72625.853210
295.396484,14063.912898,5477.523971,-70787.224015
295.399009,11251.130318,2664.741391,-71400.100414
295.401533,11695.253884,5921.647536,-70634.004916
295.404058,5329.482782,0.000000,-71859.757712
295.406582,2960.823768,0.000000,-72779.072310
295.409107,3552.988522,4589.276840,-75077.358804
295.411631,6661.853478,7846.182985,-73851.606007
295.414156,740.205942,-5033.400406,-74311.263306
295.416680,13027.624579,6661.853478,-72472.634111
295.419205,3849.070898,4589.276840,-70940.443115
295.421730,3997.112087,-1184.329507,-72012.976812
295.424254,18357.107362,7698.141797,-72779.072310
295.426779,8438.347739,1332.370696,-73391.948708
295.429303,13767.830521,4737.318029,-74004.825107
295.431828,12435.459826,444.123565,-72319.415011
295.434352,3997.112087,-2960.823768,-71093.662214
295.436877,7550.100608,9030.512492,-71706.538613
295.439401,592.164754,-1628.453072,-71859.757712
295.441926,-3552.988522,-9770.718434,-74004.825107
295.444451,-6513.812290,-7254.018232,-74464.482406
295.446975,-6069.688724,-7402.059420,-73851.606007
295.449500,-7994.224174,-12287.418637,-72012.976812
295.452024,-2812.782580,444.123565,-72625.853210
295.454549,-1776.494261,-2220.617826,-73851.606007
295.457073,6809.894666,-3552.988522,-73851.606007
295.459598,3404.947333,4441.235652,-72625.853210
295.462122,-3997.112087,-7994.224174,-70787.224015
295.464647,888.247130,-7105.977043,-70021.128517
295.467172,-1924.535449,-5329.482782,-73391.948708
295.469696,592.164754,-6661.853478,-74617.701505
295.472221,0.000000,-740.205942,-74004.825107
295.474763,-5921.647536,-9770.718434,-73085.510509
295.477305,-7846.182985,-3997.112087,-72472.634111
295.479847,-6513.812290,-4885.359217,-70940.443115
295.482390,-4441.235652,-11103.089130,-73085.510509
295.484932,3997.112087,5033.400406,-73698.386908
295.487474,1332.370696,-1036.288319,-73238.729609
295.490016,16136.489536,8142.265362,-73545.167808
295.492559,10510.924376,1628.453072,-70634.004916
295.495101,13471.748144,4293.194464,-71706.538613
295.497643,13471.748144,7846.182985,-70787.224015
295.500186,4737.318029,148.041188,-71553.319513
295.502728,2516.700203,-1036.288319,-73545.167808
295.505270,4589.276840,5329.482782,-73698.386908
295.507812,8586.388927,3256.906145,-74464.482406
295.510355,1628.453072,5625.565159,-75690.235202
295.512897,-1036.288319,-7402.059420,-74004.825107
295.515439,14804.118840,13767.830521,-71246.881314
295.517981,1776.494261,1924.535449,-70174.347617
295.520524,7105.977043,-1776.494261,-71400.100414
295.523066,17320.819043,7105.977043,-73545.167808
295.525608,12879.583391,3108.864956,-73545.167808
295.528150,10658.965565,-148.041188,-72166.195912
295.530693,6513.812290,4293.194464,-71553.319513
295.533235,-740.205942,-444.123565,-70787.224015
295.535777,9030.512492,4589.276840,-72319.415011
295.538319,-8290.306550,-12583.501014,-73085.510509
295.540862,-1924.535449,-9178.553681,-75383.797003
295.543404,-4589.276840,-3404.947333,-74770.920605
295.545946,-9030.512492,-17468.860231,-73238.729609
295.548488,-1924.535449,2516.700203,-73238.729609
295.551031,-3404.947333,-3552.988522,-72779.072310
295.553573,6217.729913,-148.041188,-73851.606007
295.556115,7105.977043,-3256.906145,-72012.976812
295.558657,-148.041188,0.000000,-72012.976812
295.561200,-2812.782580,-7254.018232,-70174.347617
295.563742,2220.617826,-5329.482782,-72472.634111
295.566284,1036.288319,-3256.906145,-73391.948708
295.568826,-1036.288319,-7254.018232,-74311.263306
295.571369,-5033.400406,-7105.977043,-73851.606007
295.573911,-8586.388927,-7105.977043,-73085.510509
295.576467,-5773.606348,-2220.617826,-72166.195912
295.579023,-3256.906145,-7254.018232,-73238.729609
295.581579,1480.411884,3701.029710,-73391.948708
295.584135,2220.617826,-296.082377,-73545.167808
295.586692,14063.912898,6661.853478,-73391.948708
295.589248,12139.377449,2072.576638,-71706.538613
295.591804,13915.871710,3849.070898,-70940.443115
295.594360,10955.047942,7402.059420,-70021.128517
295.596916,5181.441594,-592.164754,-70634.004916
295.599472,6809.894666,1924.535449,-72472.634111
295.602028,4145.153275,6217.729913,-72932.291410
295.604584,3256.906145,3701.029710,-75537.016103
295.607141,6661.853478,-6661.853478,-75230.577904
295.609697,13175.665768,9178.553681,-73391.948708
295.612253,0.000000,888.247130,-71706.538613
295.614809,5329.482782,2516.700203,-70634.004916
295.617365,9918.759623,7994.224174,-71093.662214
295.619921,6217.729913,1480.411884,-72472.634111
295.622477,15396.283594,5477.523971,-75383.797003
295.625034,12139.377449,-1184.329507,-72472.634111
295.627590,6809.894666,-1628.453072,-71093.662214
295.630146,5773.606348,7105.977043,-70787.224015
295.632702,-888.247130,-2960.823768,-71706.538613
295.635258,-2072.576638,-5921.647536,-73698.386908
295.637814,-8142.265362,-9770.718434,-75230.577904
295.640370,-6365.771101,-5921.647536,-74004.825107
295.642926,-8734.430116,-10510.924376,-73085.510509
295.645483,-3701.029710,-3997.112087,-72932.291410
295.648039,2220.617826,-888.247130,-73238.729609
295.650595,3552.988522,-2960.823768,-74004.825107
295.653151,8438.347739,0.000000,-70327.566716
295.655707,-2516.700203,1036.288319,-71400.100414
295.658263,148.041188,-7254.018232,-70327.566716
295.660819,888.247130,-5625.565159,-72472.634111
295.663375,-740.205942,-3256.906145,-74464.482406
295.665932,-4145.153275,-8734.430116,-74311.263306
295.668488,-3701.029710,-2516.700203,-73238.729609
295.671044,-9474.636058,-6957.935855,-73085.510509
295.673600,-5477.523971,-1184.329507,-72472.634111
295.676156,-4737.318029,-11399.171507,-73238.729609
295.678724,3997.112087,2812.782580,-73851.606007
295.681292,8882.471304,9918.759623,-73238.729609
295.683859,9326.594869,-1184.329507,-72932.291410
295.686427,21317.931130,6513.812290,-71093.662214
295.688995,8734.430116,888.247130,-71706.538613
295.691563,9178.553681,7698.141797,-71400.100414
295.694131,6661.853478,2960.823768,-71400.100414
295.696699,1924.535449,-3256.906145,-72625.853210
295.699266,2072.576638,9326.594869,-75690.235202
295.701834,-888.247130,-2960.823768,-75996.673402
295.704402,13915.871710,1480.411884,-75843.454302
295.706970,6957.935855,12731.542202,-72012.976812
295.709538,296.082377,-1332.370696,-69714.690318
295.712105,10362.883188,5329.482782,-71246.881314
295.714673,6513.812290,0.000000,-71093.662214
295.717241,15544.324782,5033.400406,-74311.263306
295.719809,16432.571912,7254.018232,-74158.044206
295.722377,3552.988522,-5477.523971,-71859.757712
295.724945,10214.842000,5329.482782,-70634.004916
295.727512,3849.070898,4293.194464,-70787.224015
295.730080,-6661.853478,-12435.459826,-72625.853210
295.732648,-888.247130,-148.041188,-75230.577904
295.735216,-11547.212695,-14063.912898,-74464.482406
295.737784,-4737.318029,-2960.823768,-74770.920605
295.740351,-6513.812290,-3256.906145,-73085.510509
295.742919,-5033.400406,-4737.318029,-73545.167808
295.745487,7254.018232,3552.988522,-73391.948708
295.748055,4293.194464,-8734.430116,-71400.100414
295.750623,2812.782580,2664.741391,-71553.319513
295.753190,1332.370696,-3552.988522,-70940.443115
295.755758,1184.329507,-4589.276840,-72625.853210
295.758326,444.123565,-9326.594869,-73545.167808
295.760894,-296.082377,-7550.100608,-74004.825107
295.763462,-5181.441594,-6809.894666,-73545.167808
295.766030,-7846.182985,-7846.182985,-73238.729609
295.768597,-6217.729913,148.041188,-72932.291410
295.771165,-5921.647536,-9918.759623,-73238.729609
295.773733,2368.659014,2072.576638,-73391.948708
295.776301,1776.494261,1036.288319,-73238.729609
295.778869,15396.283594,4737.318029,-73391.948708
295.781445,15692.365970,1776.494261,-71246.881314
295.784021,13175.665768,3256.906145,-70787.224015
295.786598,13915.871710,10362.883188,-70634.004916
295.789174,3108.864956,-2516.700203,-71246.881314
295.791750,4737.318029,1924.535449,-71859.757712
295.794327,2812.782580,6217.729913,-72779.072310
295.796903,8290.306550,5773.606348,-75383.797003
295.799479,2368.659014,-3997.112087,-75996.673402
295.802055,3552.988522,8142.265362,-74004.825107
295.804632,5773.606348,6957.935855,-70634.004916
295.807208,2072.576638,-2072.576638,-70480.785816
295.809784,14952.160028,3701.029710,-72012.976812
295.812361,13619.789333,5033.400406,-73545.167808
295.814937,11103.089130,1628.453072,-74158.044206
295.817513,11547.212695,-444.123565,-72779.072310
295.820090,4145.153275,888.247130,-70327.566716
295.822666,8438.347739,8882.471304,-71246.881314
295.825242,-9178.553681,-14804.118840,-71859.757712
295.827819,-2516.700203,-1776.494261,-75230.577904
295.830395,-7402.059420,-6513.812290,-74770.920605
295.832971,-7698.141797,-12139.377449,-74311.263306
295.835547,-7105.977043,-3108.864956,-73238.729609
295.838124,-6217.729913,-7550.100608,-73698.386908
295.840700,6217.729913,-2664.741391,-73851.606007
295.843276,3552.988522,3108.864956,-72779.072310
295.845853,-2072.576638,-3552.988522,-69867.909418
295.848429,-2960.823768,-6217.729913,-71246.881314
295.851005,3997.112087,-2664.741391,-71706.538613
295.853582,-4145.153275,-9918.759623,-73851.606007
295.856158,1776.494261,-3552.988522,-74464.482406
295.858734,-888.247130,-1332.370696,-73545.167808
295.861311,-7994.224174,-9622.677246,-72319.415011
295.863887,-5773.606348,296.082377,-72932.291410
295.866463,-5921.647536,-9030.512492,-71859.757712
295.869040,-888.247130,-1184.329507,-74464.482406
295.871616,6069.688724,6957.935855,-72932.291410
295.874192,13323.706956,5181.441594,-72932.291410
295.876768,14359.995275,3256.906145,-72625.853210
295.879345,11547.212695,1924.535449,-70787.224015
295.881921,11103.089130,9178.553681,-71400.100414
295.884505,3849.070898,-1036.288319,-70634.004916
295.887088,3701.029710,-148.041188,-71859.757712
295.889671,6069.688724,7550.100608,-72166.195912
295.892255,1924.535449,-2516.700203,-76609.549800
295.894838,10510.924376,1924.535449,-76609.549800
295.897422,1332.370696,3256.906145,-73391.948708
295.900005,-444.123565,444.123565,-70787.224015
295.902589,9474.636058,4145.153275,-69714.690318
295.905172,7254.018232,1184.329507,-70940.443115
295.907756,15988.448347,5921.647536,-74311.263306
295.910339,15544.324782,6365.771101,-74464.482406
295.912923,4885.359217,-5181.441594,-72472.634111
295.915506,9178.553681,5181.441594,-70634.004916
295.918090,6365.771101,4441.235652,-70174.347617
295.920673,-9622.677246,-14063.912898,-73238.729609
295.923257,-444.123565,-1776.494261,-75537.016103
295.925840,-10066.800811,-9622.677246,-74158.044206
295.928423,-6069.688724,-9474.636058,-74311.263306
295.931007,-5625.565159,-2960.823768,-73238.729609
295.933590,-5921.647536,-3849.070898,-72779.072310
295.936174,4737.318029,-3108.864956,-74464.482406
295.938757,888.247130,1036.288319,-70634.004916
295.941341,-6365.771101,-12435.459826,-69714.690318
295.943924,8734.430116,-3256.906145,-70634.004916
295.946508,3256.906145,-1924.535449,-71246.881314
295.949091,-4293.194464,-11991.336260,-74770.920605
295.951675,-1332.370696,1776.494261,-74158.044206
295.954258,-7994.224174,-16284.530724,-73085.510509
295.956842,-4145.153275,592.164754,-73698.386908
295.959425,-1332.370696,-2516.700203,-72625.853210
295.962009,-7402.059420,-9178.553681,-73085.510509
295.964592,2072.576638,4441.235652,-74770.920605
295.967176,5181.441594,7994.224174,-73238.729609
295.969759,14804.118840,2072.576638,-73085.510509
295.972342,21169.889941,3552.988522,-71093.662214
295.974926,10510.924376,1628.453072,-70634.004916
295.977509,10807.006753,5625.565159,-71246.881314
295.980093,888.247130,2960.823768,-71093.662214
295.982676,-1776.494261,-4293.194464,-72932.291410
295.985260,3256.906145,9622.677246,-76303.111601
295.987848,5033.400406,-5773.606348,-76456.330700
295.990437,7254.018232,6957.935855,-75843.454302
295.993025,3552.988522,5181.441594,-70940.443115
295.995614,5329.482782,3404.947333,-70021.128517
295.998202,9770.718434,3701.029710,-70634.004916
296.000791,10066.800811,4441.235652,-72625.853210
296.003379,16284.530724,8290.306550,-74158.044206
296.005968,10510.924376,-2220.617826,-73545.167808
296.008556,8142.265362,888.247130,-72012.976812
296.011145,5181.441594,5625.565159,-70174.347617
296.013733,0.000000,-7254.018232,-71553.319513
296.016322,-2516.700203,-5329.482782,-73238.729609
296.018910,-11843.295072,-11399.171507,-75230.577904
296.021499,-6809.894666,-5181.441594,-74617.701505
296.024087,-9918.759623,-10955.047942,-73545.167808
296.026676,-1628.453072,-3849.070898,-74770.920605
296.029264,8290.306550,-296.082377,-73085.510509
296.031853,296.082377,-2368.659014,-73085.510509
296.034441,444.123565,-2812.782580,-70021.128517
296.037030,-296.082377,-6069.688724,-70787.224015
296.039618,5329.482782,-2220.617826,-71859.757712
296.042207,-3552.988522,-3256.906145,-73391.948708
296.044795,-4737.318029,-9178.553681,-74770.920605
296.047384,-592.164754,-2664.741391,-73238.729609
296.049972,-7254.018232,-12139.377449,-73085.510509
296.052561,-3849.070898,1924.535449,-72625.853210
296.055149,-10214.842000,-13027.624579,-73085.510509
296.057738,592.164754,-1776.494261,-73851.606007
296.060326,10066.800811,11695.253884,-73238.729609
296.062915,10510.924376,2220.617826,-73238.729609
296.065503,17024.736666,2220.617826,-72625.853210
296.068092,16432.571912,3849.070898,-71093.662214
296.070680,13767.830521,7994.224174,-70021.128517
296.073269,1628.453072,-1332.370696,-70480.785816
296.075857,2220.617826,-1184.329507,-70940.443115
296.078446,9918.759623,5329.482782,-74158.044206
296.081034,9770.718434,1480.411884,-77835.302597
296.083623,6957.935855,1480.411884,-76762.768900
296.086211,3849.070898,7402.059420,-72932.291410
296.088800,1480.411884,4885.359217,-69714.690318
296.091392,6069.688724,3404.947333,-69561.471218
296.093985,7994.224174,1776.494261,-71553.319513
296.096577,18209.066173,6217.729913,-74311.263306
296.099170,15988.448347,592.164754,-74617.701505
296.101763,5625.565159,296.082377,-72166.195912
296.104355,1332.370696,6365.771101,-71093.662214
296.106948,1924.535449,-5329.482782,-71400.100414
296.109540,-1332.370696,-6661.853478,-72779.072310
296.112133,-9622.677246,-8882.471304,-75077.358804
296.114726,-9030.512492,-2960.823768,-74464.482406
296.117318,-9622.677246,-15692.365970,-74004.825107
296.119911,-2664.741391,-2960.823768,-74617.701505
296.122503,6069.688724,444.123565,-73391.948708
296.125096,5033.400406,-8882.471304,-70940.443115
296.127688,4737.318029,-2664.741391,-71400.100414
296.130281,-3256.906145,3256.906145,-69561.471218
296.132874,-1480.411884,-18357.107362,-71706.538613
296.135466,6069.688724,7698.141797,-73391.948708
296.138059,-4737.318029,-5773.606348,-74770.920605
296.140651,-6809.894666,-10955.047942,-74311.263306
296.143244,-1480.411884,888.247130,-72779.072310
296.145837,-11251.130318,-6957.935855,-73238.729609
296.148429,-4145.153275,-5625.565159,-73238.729609
296.151022,-2072.576638,1332.370696,-72472.634111
296.153614,4589.276840,1036.288319,-73238.729609
296.156207,17764.942608,8142.265362,-73851.606007
296.158800,16876.695478,3552.988522,-72779.072310
296.161392,11399.171507,2516.700203,-71706.538613
296.163985,13323.706956,9326.594869,-70787.224015
296.166577,888.247130,-2960.823768,-69867.909418
296.169170,2072.576638,1332.370696,-71859.757712
296.171762,1036.288319,5033.400406,-74004.825107
296.174355,2960.823768,-7550.100608,-77375.645298
296.176948,15692.365970,-3701.029710,-78294.959896
296.179540,10362.883188,10362.883188,-72932.291410
296.182133,888.247130,1036.288319,-69255.033019
296.184725,10362.883188,592.164754,-69408.252119
296.187318,12583.501014,5477.523971,-71400.100414
296.189911,9770.718434,3701.029710,-73085.510509
296.192503,16580.613101,1480.411884,-75077.358804
296.195099,6513.812290,0.000000,-71859.757712
296.197695,2220.617826,1628.453072,-69714.690318
296.200290,592.164754,-9326.594869,-71400.100414
296.202886,-2072.576638,-1332.370696,-73085.510509
296.205482,-13767.830521,-13323.706956,-75230.577904
296.208077,-4737.318029,-1776.494261,-74770.920605
296.210673,-12287.418637,-12879.583391,-73698.386908
296.213269,-148.041188,-2664.741391,-75383.797003
296.215865,7402.059420,-1184.329507,-73238.729609
296.218460,5773.606348,-6513.812290,-70787.224015
296.221056,2072.576638,2072.576638,-70327.566716
296.223652,-1776.494261,-5329.482782,-69255.033019
296.226247,2812.782580,-8142.265362,-72166.195912
296.228843,1776.494261,-2368.659014,-73238.729609
296.231439,-5181.441594,-11547.212695,-75077.358804
296.234035,-4293.194464,-3404.947333,-74770.920605
296.236630,-9474.636058,-11695.253884,-73851.606007
296.239226,-3552.988522,-2368.659014,-73391.948708
296.241822,-5921.647536,-5329.482782,-72319.415011
296.244417,-148.041188,1924.535449,-73085.510509
296.247013,8882.471304,9622.677246,-73391.948708
296.249609,11251.130318,1184.329507,-73391.948708
296.252205,22354.219448,3849.070898,-71706.538613
296.254800,14508.036463,3108.864956,-70940.443115
296.257396,10214.842000,5921.647536,-70787.224015
296.259992,1332.370696,4293.194464,-70174.347617
296.262587,-2220.617826,-888.247130,-71093.662214
296.265183,5477.523971,8290.306550,-76303.111601
296.267779,6809.894666,-6365.771101,-77988.521696
296.270375,14359.995275,4589.276840,-76303.111601
296.272970,3108.864956,3701.029710,-72472.634111
296.275566,4441.235652,3256.906145,-69867.909418
296.278162,8882.471304,2812.782580,-70480.785816
296.280758,12583.501014,4589.276840,-72472.634111
296.283353,13323.706956,5181.441594,-74004.825107
296.285949,10214.842000,-444.123565,-73085.510509
296.288545,5033.400406,-1776.494261,-72012.976812
296.291140,12435.459826,7550.100608,-70480.785816
296.293736,-8882.471304,-15840.407159,-71246.881314
296.296332,-5477.523971,-2072.576638,-73851.606007
296.298929,-7846.182985,-1628.453072,-74464.482406
296.301526,-9178.553681,-14952.160028,-74617.701505
296.304123,296.082377,888.247130,-74617.701505
296.306721,-2812.782580,-6365.771101,-74158.044206
296.309318,4589.276840,-5773.606348,-73391.948708
296.311915,8290.306550,-148.041188,-70174.347617
296.314512,0.000000,444.123565,-69255.033019
296.317110,1628.453072,-6365.771101,-71093.662214
296.319707,2960.823768,740.205942,-72932.291410
296.322304,-7550.100608,-9770.718434,-74770.920605
296.324901,-4145.153275,-4441.235652,-75383.797003
296.327498,-5625.565159,-7402.059420,-74004.825107
296.330096,-5033.400406,-3404.947333,-73238.729609
296.332693,-6217.729913,-8290.306550,-73698.386908
296.335290,-2960.823768,-1480.411884,-72166.195912
296.337887,888.247130,7550.100608,-72779.072310
296.340485,10362.883188,5477.523971,-73545.167808
296.343082,16876.695478,1480.411884,-72779.072310
296.345679,19393.395680,3997.112087,-71553.319513
296.348276,15988.448347,11103.089130,-70940.443115
296.350873,1332.370696,-3552.988522,-69255.033019
296.353471,-1628.453072,1036.288319,-70787.224015
296.356068,296.082377,9622.677246,-73851.606007
296.358665,6069.688724,3256.906145,-76149.892501
296.361262,5329.482782,-9030.512492,-78448.178995
296.363860,10510.924376,8142.265362,-74464.482406
296.366457,888.247130,7550.100608,-68488.937521
296.369054,6957.935855,-1332.370696,-68795.375720
296.371651,15988.448347,3404.947333,-71706.538613
