#time,accel_x,accel_y,accel_z
419.375250,3404.947333,-1036.288319,-73238.729609
419.377797,2220.617826,-148.041188,-72932.291410
419.380345,2072.576638,-296.082377,-73085.510509
419.382892,2664.741391,-592.164754,-73545.167808
419.385439,3108.864956,-8586.388927,-73391.948708
419.387987,1332.370696,-2960.823768,-73391.948708
419.390534,5329.482782,-2960.823768,-71859.757712
419.393081,3404.947333,-7846.182985,-72779.072310
419.395628,2664.741391,2664.741391,-73391.948708
419.398176,7698.141797,-9030.512492,-72779.072310
419.400723,7994.224174,1628.453072,-73238.729609
419.403270,7846.182985,-4589.276840,-73238.729609
419.405817,9474.636058,-4145.153275,-73238.729609
419.408365,2072.576638,-1776.494261,-72932.291410
419.410912,3108.864956,-9326.594869,-72012.976812
419.413459,1480.411884,444.123565,-73545.167808
419.416007,6365.771101,-2960.823768,-74004.825107
419.418554,7105.977043,-2516.700203,-74158.044206
419.421101,1332.370696,5329.482782,-73391.948708
419.423648,-1776.494261,3256.906145,-72625.853210
419.426196,-2664.741391,1480.411884,-72472.634111
419.428743,-3849.070898,7994.224174,-73085.510509
419.431290,-1480.411884,-1924.535449,-73851.606007
419.433837,1184.329507,2072.576638,-74158.044206
419.436385,1184.329507,3108.864956,-73698.386908
419.438932,4293.194464,-1332.370696,-73238.729609
419.441479,1776.494261,-444.123565,-72319.415011
419.444027,1184.329507,3849.070898,-72319.415011
419.446574,-444.123565,-2368.659014,-74004.825107
419.449121,1480.411884,-5181.441594,-73085.510509
419.451668,-2368.659014,7402.059420,-72472.634111
419.454221,4293.194464,2368.659014,-73851.606007
419.456774,1332.370696,740.205942,-75077.358804
419.459327,2960.823768,7254.018232,-74617.701505
419.461880,2516.700203,-4737.318029,-72932.291410
419.464433,-2368.659014,5477.523971,-73085.510509
419.466985,-1924.535449,6069.688724,-73085.510509
419.469538,-592.164754,-3404.947333,-73238.729609
419.472091,-2368.659014,2960.823768,-72932.291410
419.474644,2664.741391,1776.494261,-73238.729609
419.477197,2220.617826,3404.947333,-73698.386908
419.479750,1924.535449,2516.700203,-73085.510509
419.482302,888.247130,4589.276840,-73085.510509
419.484855,-444.123565,-296.082377,-73085.510509
419.487408,-296.082377,740.205942,-73085.510509
419.489961,-1036.288319,2516.700203,-71859.757712
419.492514,-2220.617826,1184.329507,-72779.072310
419.495067,4589.276840,-2220.617826,-73391.948708
419.497620,5921.647536,1776.494261,-74158.044206
419.500172,3256.906145,4293.194464,-73391.948708
419.502725,2664.741391,-3108.864956,-73085.510509
419.505278,1332.370696,-3849.070898,-73545.167808
419.507831,-296.082377,3552.988522,-73238.729609
419.510384,3997.112087,-13619.789333,-72932.291410
419.512937,5033.400406,-2516.700203,-72166.195912
419.515489,8142.265362,-2664.741391,-73238.729609
419.518042,6957.935855,-2072.576638,-74004.825107
419.520595,5033.400406,1776.494261,-73085.510509
419.523148,6365.771101,-3108.864956,-73391.948708
419.525701,1924.535449,-3997.112087,-73085.510509
419.528254,2664.741391,-2664.741391,-73545.167808
419.530806,7550.100608,-6957.935855,-72625.853210
419.533359,5477.523971,0.000000,-72932.291410
419.535912,3701.029710,-6069.688724,-73238.729609
419.538465,2072.576638,3108.864956,-73851.606007
419.541018,7105.977043,-3997.112087,-73238.729609
419.543571,7105.977043,-6365.771101,-72012.976812
419.546123,1332.370696,-296.082377,-73851.606007
419.548676,1036.288319,1628.453072,-72932.291410
419.551229,4145.153275,296.082377,-73085.510509
419.553782,1332.370696,-6365.771101,-73545.167808
419.556340,1628.453072,12435.459826,-74464.482406
419.558897,5329.482782,-11251.130318,-74464.482406
419.561455,2664.741391,-4441.235652,-72779.072310
419.564013,5477.523971,5033.400406,-71553.319513
419.566570,9326.594869,-7846.182985,-72625.853210
419.569128,6809.894666,-1332.370696,-72472.634111
419.571686,5773.606348,-3701.029710,-73238.729609
419.574243,5181.441594,-4293.194464,-73238.729609
419.576801,4145.153275,-888.247130,-72779.072310
419.579358,6217.729913,-4441.235652,-72779.072310
419.581916,4589.276840,-2368.659014,-73238.729609
419.584474,5329.482782,-740.205942,-73698.386908
419.587031,2220.617826,-1924.535449,-74004.825107
419.589589,3256.906145,-1184.329507,-73545.167808
419.592147,2960.823768,-4885.359217,-72932.291410
419.594704,5625.565159,-7550.100608,-73085.510509
419.597262,5625.565159,-3552.988522,-72779.072310
419.599820,2220.617826,-1184.329507,-72625.853210
419.602377,5921.647536,4737.318029,-72932.291410
419.604935,-148.041188,6809.894666,-72779.072310
419.607492,-2220.617826,6513.812290,-73698.386908
419.610050,-1036.288319,-10807.006753,-74004.825107
419.612608,1628.453072,13767.830521,-73391.948708
419.615165,1332.370696,-9326.594869,-74617.701505
419.617723,-444.123565,3849.070898,-72779.072310
419.620281,4145.153275,1036.288319,-72012.976812
419.622838,740.205942,1036.288319,-72625.853210
419.625396,740.205942,3108.864956,-72319.415011
419.627954,1924.535449,888.247130,-73238.729609
419.630511,-2072.576638,1628.453072,-72625.853210
419.633069,-1480.411884,1332.370696,-73085.510509
419.635627,1480.411884,2664.741391,-73698.386908
419.638184,2812.782580,-2664.741391,-73851.606007
419.640742,1776.494261,1332.370696,-73545.167808
419.643299,2664.741391,4737.318029,-72472.634111
419.645857,4737.318029,-2368.659014,-72319.415011
419.648415,148.041188,-2812.782580,-71859.757712
419.650972,2368.659014,5181.441594,-72472.634111
419.653530,1924.535449,-13323.706956,-72166.195912
419.656088,2368.659014,11991.336260,-73085.510509
419.658620,4885.359217,-3997.112087,-74924.139704
419.661153,1924.535449,296.082377,-73238.729609
419.663686,-4441.235652,9770.718434,-73238.729609
419.666218,-1628.453072,444.123565,-73238.729609
419.668751,-1776.494261,-888.247130,-72319.415011
419.671284,-2368.659014,8734.430116,-73391.948708
419.673816,4145.153275,-3256.906145,-74464.482406
419.676349,-1332.370696,7254.018232,-73545.167808
419.678881,1628.453072,-2812.782580,-72625.853210
419.681414,888.247130,2072.576638,-72779.072310
419.683947,-592.164754,4441.235652,-73085.510509
419.686479,740.205942,-2072.576638,-73391.948708
419.689012,4737.318029,2220.617826,-73545.167808
419.691545,3552.988522,-1480.411884,-74311.263306
419.694077,-1628.453072,5181.441594,-72319.415011
419.696610,296.082377,-2072.576638,-72166.195912
419.699143,2960.823768,-444.123565,-72932.291410
419.701675,5773.606348,-148.041188,-73698.386908
419.704208,9030.512492,-13027.624579,-73391.948708
419.706741,6661.853478,-2516.700203,-73391.948708
419.709273,10214.842000,-3849.070898,-72932.291410
419.711806,4885.359217,-2072.576638,-72166.195912
419.714338,2368.659014,2072.576638,-71859.757712
419.716871,2960.823768,-3404.947333,-72625.853210
419.719404,2220.617826,296.082377,-73851.606007
419.721936,2812.782580,-4441.235652,-74464.482406
419.724469,7994.224174,-5181.441594,-73545.167808
419.727002,6809.894666,-592.164754,-72932.291410
419.729534,3849.070898,-1776.494261,-73085.510509
419.732067,4737.318029,-1332.370696,-73238.729609
419.734600,6809.894666,-5625.565159,-72779.072310
419.737132,3997.112087,-1184.329507,-71553.319513
419.739665,2664.741391,2812.782580,-72779.072310
419.742197,2664.741391,3701.029710,-73391.948708
419.744730,3552.988522,-4737.318029,-72625.853210
419.747263,7698.141797,888.247130,-72625.853210
419.749795,8290.306550,-7846.182985,-73851.606007
419.752328,2516.700203,888.247130,-74004.825107
419.754861,5477.523971,-4737.318029,-73238.729609
419.757393,5773.606348,-5477.523971,-72012.976812
419.759935,7105.977043,3701.029710,-72012.976812
419.762476,7698.141797,-2960.823768,-72932.291410
419.765017,6217.729913,-5329.482782,-73545.167808
419.767558,4885.359217,-1036.288319,-73085.510509
419.770100,4885.359217,-7550.100608,-73698.386908
419.772641,4441.235652,-888.247130,-72779.072310
419.775182,3256.906145,592.164754,-74158.044206
419.777724,1776.494261,-1480.411884,-72779.072310
419.780265,4293.194464,-1184.329507,-73085.510509
419.782806,7550.100608,-7105.977043,-73851.606007
419.785348,5329.482782,-4589.276840,-72932.291410
419.787889,6069.688724,-4441.235652,-72472.634111
419.790430,2220.617826,-1036.288319,-71859.757712
419.792971,2960.823768,9474.636058,-72319.415011
419.795513,740.205942,3108.864956,-72932.291410
419.798054,-4441.235652,5921.647536,-73391.948708
419.800595,1332.370696,-13175.665768,-75077.358804
419.803137,-2664.741391,5921.647536,-74924.139704
419.805678,-2368.659014,444.123565,-73238.729609
419.808219,5329.482782,-5477.523971,-72319.415011
419.810760,2220.617826,13619.789333,-71706.538613
419.813302,2072.576638,-3256.906145,-72472.634111
419.815843,296.082377,5033.400406,-73085.510509
419.818384,0.000000,1776.494261,-73851.606007
419.820926,-296.082377,-1480.411884,-72932.291410
419.823467,-1184.329507,2072.576638,-72472.634111
419.826008,592.164754,2220.617826,-73085.510509
419.828550,3701.029710,-888.247130,-74004.825107
419.831091,-740.205942,296.082377,-75230.577904
419.833632,4145.153275,3849.070898,-73391.948708
419.836173,1036.288319,-2368.659014,-72472.634111
419.838715,1036.288319,-444.123565,-72012.976812
419.841256,-888.247130,-1628.453072,-71400.100414
419.843797,1924.535449,3552.988522,-72932.291410
419.846339,4885.359217,1332.370696,-73085.510509
419.848880,-592.164754,1480.411884,-75537.016103
419.851421,592.164754,2812.782580,-74004.825107
419.853962,148.041188,-1036.288319,-72625.853210
419.856504,-4145.153275,8290.306550,-72472.634111
419.859045,-1628.453072,888.247130,-73698.386908
419.861594,-1924.535449,1924.535449,-74004.825107
419.864142,3849.070898,3404.947333,-72932.291410
419.866691,3552.988522,-3404.947333,-72319.415011
419.869240,592.164754,3997.112087,-72779.072310
419.871789,296.082377,2812.782580,-73238.729609
419.874337,3849.070898,-1480.411884,-73085.510509
419.876886,4293.194464,3701.029710,-74158.044206
419.879435,2072.576638,2664.741391,-74158.044206
419.881984,-592.164754,-4589.276840,-72779.072310
419.884532,296.082377,1924.535449,-72625.853210
419.887081,3404.947333,-1924.535449,-73698.386908
419.889630,3552.988522,-8734.430116,-73698.386908
419.892178,8882.471304,-7105.977043,-73545.167808
419.894727,11695.253884,-6513.812290,-72932.291410
419.897276,5477.523971,296.082377,-72625.853210
419.899825,4145.153275,-740.205942,-72932.291410
419.902373,2072.576638,-740.205942,-72625.853210
419.904922,2960.823768,-2812.782580,-73391.948708
419.907471,2368.659014,-9030.512492,-74158.044206
419.910019,4293.194464,-2664.741391,-74311.263306
419.912568,4441.235652,-2072.576638,-73851.606007
419.915117,6513.812290,-3849.070898,-73698.386908
419.917666,4145.153275,888.247130,-72779.072310
419.920214,7254.018232,-740.205942,-73698.386908
419.922763,2368.659014,-10807.006753,-73698.386908
419.925312,1628.453072,6513.812290,-72319.415011
419.927860,4737.318029,-7105.977043,-73238.729609
419.930409,6661.853478,-296.082377,-72625.853210
419.932958,4145.153275,-6217.729913,-74464.482406
419.935507,5477.523971,-1332.370696,-74158.044206
419.938055,4441.235652,-6513.812290,-73545.167808
419.940604,4737.318029,1480.411884,-74464.482406
419.943153,9326.594869,-5033.400406,-72472.634111
419.945702,4737.318029,-2516.700203,-71706.538613
419.948250,5181.441594,-296.082377,-72625.853210
419.950799,6217.729913,-9030.512492,-73238.729609
419.953348,4589.276840,-2664.741391,-73545.167808
419.955896,5477.523971,-6365.771101,-74004.825107
419.958445,6069.688724,-3256.906145,-72932.291410
419.960994,1036.288319,1924.535449,-73085.510509
419.963549,1480.411884,-296.082377,-73851.606007
419.966104,6069.688724,-9918.759623,-74004.825107
419.968660,4293.194464,-444.123565,-74158.044206
419.971215,7846.182985,-5477.523971,-72319.415011
419.973770,5181.441594,-5033.400406,-71553.319513
419.976325,740.205942,13471.748144,-71400.100414
419.978880,-444.123565,2960.823768,-72625.853210
419.981436,-2220.617826,740.205942,-73851.606007
419.983991,1628.453072,-3404.947333,-75383.797003
419.986546,1332.370696,7254.018232,-75383.797003
419.989101,-2812.782580,888.247130,-73851.606007
419.991657,1924.535449,-5773.606348,-72012.976812
419.994212,1924.535449,10658.965565,-71246.881314
419.996767,0.000000,1036.288319,-72472.634111
419.999322,1036.288319,2220.617826,-73238.729609
420.001877,1628.453072,5181.441594,-74311.263306
420.004433,-592.164754,-1924.535449,-73851.606007
420.006988,-888.247130,3701.029710,-72932.291410
420.009543,740.205942,0.000000,-72012.976812
420.012098,0.000000,888.247130,-75077.358804
420.014654,4145.153275,-1332.370696,-74464.482406
420.017209,3552.988522,888.247130,-74004.825107
420.019764,3701.029710,3256.906145,-72932.291410
420.022319,-444.123565,-6957.935855,-71093.662214
420.024874,-2072.576638,4293.194464,-70787.224015
420.027430,2516.700203,3552.988522,-72319.415011
420.029985,4589.276840,1480.411884,-74004.825107
420.032540,-444.123565,1924.535449,-74924.139704
420.035095,148.041188,888.247130,-74464.482406
420.037651,-4737.318029,2664.741391,-73698.386908
420.040206,-3256.906145,3849.070898,-72932.291410
420.042761,740.205942,-444.123565,-72932.291410
420.045316,-444.123565,3404.947333,-73391.948708
420.047871,888.247130,-1332.370696,-74311.263306
420.050427,2368.659014,444.123565,-73391.948708
420.052982,3849.070898,740.205942,-72012.976812
420.055537,5773.606348,-592.164754,-71859.757712
420.058092,1332.370696,2812.782580,-73391.948708
420.060648,-2368.659014,6957.935855,-73238.729609
420.063203,-740.205942,-3701.029710,-74158.044206
420.065734,2812.782580,-4145.153275,-74617.701505
420.068266,2664.741391,-296.082377,-74770.920605
420.070797,3108.864956,-9178.553681,-72319.415011
420.073328,8586.388927,-7105.977043,-72319.415011
420.075860,11251.130318,-1036.288319,-72166.195912
420.078391,8290.306550,-1480.411884,-72779.072310
420.080922,4885.359217,-3256.906145,-72779.072310
420.083454,1628.453072,1924.535449,-73238.729609
420.085985,888.247130,-6217.729913,-73698.386908
420.088516,3108.864956,-8586.388927,-73391.948708
420.091048,3108.864956,-1776.494261,-73851.606007
420.093579,6365.771101,-2368.659014,-73851.606007
420.096110,7550.100608,-1184.329507,-73698.386908
420.098642,7550.100608,740.205942,-73698.386908
420.101173,9474.636058,-7254.018232,-70940.443115
420.103704,4293.194464,592.164754,-72012.976812
420.106236,3552.988522,-9474.636058,-72319.415011
420.108767,3108.864956,5033.400406,-72012.976812
420.111299,3849.070898,-9178.553681,-73851.606007
420.113830,4885.359217,2664.741391,-74770.920605
420.116361,8290.306550,-8290.306550,-74924.139704
420.118893,4885.359217,-5033.400406,-73238.729609
420.121424,2220.617826,3256.906145,-71706.538613
420.123955,6217.729913,-5625.565159,-71553.319513
420.126487,6365.771101,-3849.070898,-72472.634111
420.129018,4589.276840,-740.205942,-73238.729609
420.131549,6365.771101,-7698.141797,-73698.386908
420.134081,8586.388927,-1628.453072,-73545.167808
420.136612,4737.318029,-1332.370696,-72932.291410
420.139143,4737.318029,-888.247130,-72166.195912
420.141675,1184.329507,-3701.029710,-73545.167808
420.144206,2664.741391,-2220.617826,-74464.482406
420.146737,6365.771101,-4589.276840,-74004.825107
420.149269,6069.688724,-2664.741391,-73238.729609
420.151800,5625.565159,-3256.906145,-71859.757712
420.154332,-3108.864956,12435.459826,-71246.881314
420.156863,-3404.947333,2664.741391,-72319.415011
420.159394,-148.041188,-7402.059420,-74617.701505
420.161926,4589.276840,7994.224174,-75230.577904
420.164457,2220.617826,-5329.482782,-75996.673402
420.166998,-3256.906145,2072.576638,-73085.510509
420.169539,1332.370696,-1924.535449,-72012.976812
420.172080,-1036.288319,7105.977043,-70940.443115
420.174620,0.000000,3849.070898,-72472.634111
420.177161,3256.906145,-296.082377,-73238.729609
420.179702,444.123565,4737.318029,-73238.729609
420.182243,592.164754,-592.164754,-73085.510509
420.184784,1036.288319,2368.659014,-72625.853210
420.187325,0.000000,148.041188,-73545.167808
420.189866,5033.400406,-2516.700203,-73391.948708
420.192407,3256.906145,1036.288319,-73851.606007
420.194947,5033.400406,2664.741391,-74770.920605
420.197488,0.000000,-740.205942,-72625.853210
420.200029,-740.205942,1924.535449,-70021.128517
420.202570,-740.205942,4737.318029,-70940.443115
420.205111,2664.741391,296.082377,-72779.072310
420.207652,1036.288319,4145.153275,-75077.358804
420.210193,592.164754,-1036.288319,-75230.577904
420.212734,-3552.988522,5329.482782,-74924.139704
420.215274,-2220.617826,1036.288319,-73238.729609
420.217815,-2664.741391,2960.823768,-72319.415011
420.220356,1628.453072,3256.906145,-72625.853210
420.222897,3552.988522,888.247130,-73851.606007
420.225438,2960.823768,0.000000,-74158.044206
420.227979,2072.576638,-1036.288319,-72779.072310
420.230520,4145.153275,3404.947333,-72472.634111
420.233061,4885.359217,-1184.329507,-72012.976812
420.235601,-2516.700203,6513.812290,-72166.195912
420.238142,-296.082377,-4737.318029,-73545.167808
420.240683,5477.523971,2664.741391,-75537.016103
420.243224,2960.823768,-8586.388927,-74464.482406
420.245765,4145.153275,-9030.512492,-73545.167808
420.248306,9178.553681,-4885.359217,-71553.319513
420.250847,7105.977043,296.082377,-71553.319513
420.253387,6957.935855,-888.247130,-71553.319513
420.255928,7105.977043,2516.700203,-73698.386908
420.258469,3552.988522,-5181.441594,-74004.825107
420.261010,1776.494261,-7846.182985,-74464.482406
420.263551,2960.823768,-1776.494261,-72779.072310
420.266092,4145.153275,-6217.729913,-73698.386908
420.268642,4145.153275,4145.153275,-73698.386908
420.271191,8734.430116,-8290.306550,-74158.044206
420.273740,4885.359217,3701.029710,-72472.634111
420.276289,6069.688724,3552.988522,-72166.195912
420.278837,4293.194464,-10362.883188,-72779.072310
420.281386,-296.082377,-7105.977043,-72012.976812
420.283935,888.247130,1480.411884,-72932.291410
420.286484,8734.430116,-6513.812290,-72625.853210
420.289033,6513.812290,-4737.318029,-75383.797003
420.291582,5773.606348,-1036.288319,-75843.454302
420.294131,6513.812290,-9178.553681,-73085.510509
420.296680,2220.617826,-2960.823768,-71246.881314
420.299229,3997.112087,1628.453072,-71246.881314
420.301778,7105.977043,-8586.388927,-72472.634111
420.304327,5773.606348,-592.164754,-74311.263306
420.306876,8586.388927,-3404.947333,-74004.825107
420.309425,2812.782580,-3552.988522,-72779.072310
420.311974,1628.453072,2220.617826,-73391.948708
420.314523,4441.235652,-12287.418637,-72932.291410
420.317072,4737.318029,740.205942,-73698.386908
420.319620,6069.688724,-2960.823768,-73545.167808
420.322169,5033.400406,-6217.729913,-73238.729609
420.324718,-148.041188,14359.995275,-71706.538613
420.327267,-740.205942,444.123565,-71553.319513
420.329816,-5033.400406,2812.782580,-72012.976812
420.332365,1184.329507,-2368.659014,-74158.044206
420.334914,2516.700203,4145.153275,-75383.797003
420.337463,1480.411884,296.082377,-74924.139704
420.340012,3552.988522,-1332.370696,-73238.729609
420.342561,148.041188,7550.100608,-70634.004916
420.345110,-888.247130,3108.864956,-71553.319513
420.347659,-444.123565,3108.864956,-72932.291410
420.350208,148.041188,2368.659014,-73238.729609
420.352757,740.205942,-1036.288319,-74617.701505
420.355306,888.247130,3552.988522,-73391.948708
420.357854,2812.782580,3849.070898,-72319.415011
420.360403,1628.453072,5329.482782,-73851.606007
420.362952,6365.771101,-10658.965565,-74311.263306
420.365501,592.164754,-5329.482782,-73085.510509
420.368050,6513.812290,20873.807564,-72472.634111
420.370606,3701.029710,-11547.212695,-72779.072310
420.373162,-6069.688724,9030.512492,-71859.757712
420.375718,-2664.741391,15100.201217,-71706.538613
420.378274,3108.864956,-5033.400406,-73391.948708
420.380829,-1036.288319,6513.812290,-74464.482406
420.383385,1184.329507,3997.112087,-75537.016103
420.385941,-1036.288319,-1924.535449,-73391.948708
420.388497,-4441.235652,6069.688724,-72319.415011
420.391053,-2072.576638,592.164754,-72779.072310
420.393609,592.164754,4293.194464,-73085.510509
420.396164,2368.659014,1776.494261,-74004.825107
420.398720,9030.512492,-2960.823768,-73391.948708
420.401276,5329.482782,2960.823768,-72319.415011
420.403832,-1184.329507,3404.947333,-72166.195912
420.406388,-1924.535449,2220.617826,-71400.100414
420.408944,1924.535449,-2664.741391,-74924.139704
420.411500,3108.864956,296.082377,-75537.016103
420.414055,5773.606348,-11103.089130,-74924.139704
420.416611,8882.471304,-9030.512492,-72472.634111
420.419167,6513.812290,-1332.370696,-71246.881314
420.421723,5181.441594,-888.247130,-71093.662214
420.424279,5181.441594,296.082377,-72472.634111
420.426835,5477.523971,1480.411884,-73851.606007
420.429390,5921.647536,-7550.100608,-74311.263306
420.431946,2072.576638,-8586.388927,-74770.920605
420.434502,3701.029710,296.082377,-73085.510509
420.437058,5921.647536,-5329.482782,-73545.167808
420.439614,4589.276840,3701.029710,-72319.415011
420.442170,4145.153275,-7846.182985,-75077.358804
420.444725,3997.112087,-7402.059420,-72932.291410
420.447281,3701.029710,6069.688724,-72166.195912
420.449837,3256.906145,-10658.965565,-71400.100414
420.452399,1776.494261,8290.306550,-72166.195912
420.454960,8734.430116,-5921.647536,-73238.729609
420.457522,6661.853478,-6513.812290,-74464.482406
420.460084,7402.059420,-1036.288319,-75383.797003
420.462645,6957.935855,-11843.295072,-74004.825107
420.465207,4589.276840,3997.112087,-72012.976812
420.467769,4885.359217,-10362.883188,-71553.319513
420.470330,3701.029710,5181.441594,-71706.538613
420.472892,8438.347739,-3701.029710,-73238.729609
420.475454,6217.729913,-5921.647536,-74004.825107
420.478015,4737.318029,3108.864956,-73085.510509
420.480577,2960.823768,-11251.130318,-73391.948708
420.483139,5033.400406,-592.164754,-72932.291410
420.485700,3404.947333,-4885.359217,-73545.167808
420.488262,4441.235652,-1628.453072,-73545.167808
420.490824,6661.853478,1776.494261,-73085.510509
420.493385,-1480.411884,8290.306550,-73238.729609
420.495947,-5921.647536,5921.647536,-72472.634111
420.498509,-2220.617826,-5181.441594,-72625.853210
420.501070,1480.411884,7994.224174,-73391.948708
420.503632,1776.494261,-2664.741391,-75690.235202
420.506194,3256.906145,740.205942,-74617.701505
420.508755,2812.782580,2220.617826,-73391.948708
420.511317,-592.164754,4737.318029,-72472.634111
420.513879,-2960.823768,2664.741391,-71706.538613
420.516440,-1628.453072,1332.370696,-72472.634111
420.519002,444.123565,1480.411884,-73085.510509
420.521564,-296.082377,2664.741391,-74004.825107
420.524125,592.164754,-1332.370696,-74464.482406
420.526687,148.041188,-2368.659014,-74004.825107
420.529249,-2664.741391,4589.276840,-74311.263306
420.531810,3701.029710,-1332.370696,-73545.167808
420.534372,740.205942,-8290.306550,-72779.072310
420.536934,-2516.700203,7254.018232,-72012.976812
420.539495,888.247130,-296.082377,-71859.757712
420.542057,-740.205942,1184.329507,-73698.386908
420.544619,740.205942,6957.935855,-72319.415011
420.547180,-1924.535449,-2812.782580,-74004.825107
420.549742,-2368.659014,6069.688724,-73698.386908
420.552304,444.123565,-296.082377,-74311.263306
420.554869,740.205942,2072.576638,-72932.291410
420.557435,2072.576638,4293.194464,-72779.072310
420.560001,1184.329507,444.123565,-73238.729609
420.562567,444.123565,-444.123565,-73545.167808
420.565132,3997.112087,3256.906145,-73085.510509
420.567698,7550.100608,-2516.700203,-72472.634111
420.570264,-888.247130,3404.947333,-72012.976812
420.572829,-1628.453072,-592.164754,-72779.072310
420.575395,2960.823768,1776.494261,-74924.139704
420.577961,3256.906145,-7402.059420,-74617.701505
420.580526,5921.647536,-10955.047942,-74770.920605
420.583092,9770.718434,-4885.359217,-72779.072310
420.585658,6217.729913,-1332.370696,-71553.319513
420.588223,5329.482782,-1480.411884,-71246.881314
420.590789,3849.070898,2368.659014,-71706.538613
420.593355,4589.276840,-1184.329507,-73391.948708
420.595921,3849.070898,-6365.771101,-75230.577904
420.598486,6957.935855,-8734.430116,-74464.482406
420.601052,4293.194464,-296.082377,-72779.072310
420.603618,5625.565159,-5033.400406,-72166.195912
420.606183,3108.864956,2960.823768,-72932.291410
420.608749,8586.388927,4441.235652,-73085.510509
420.611315,7846.182985,-13027.624579,-72166.195912
420.613880,-1036.288319,1628.453072,-73391.948708
420.616446,-2516.700203,4589.276840,-72319.415011
420.619012,4737.318029,-12731.542202,-71553.319513
420.621577,4737.318029,2960.823768,-73238.729609
420.624143,10214.842000,-2960.823768,-75077.358804
420.626709,7994.224174,-13175.665768,-74464.482406
420.629274,4885.359217,7105.977043,-72625.853210
420.631840,5921.647536,-11399.171507,-72472.634111
420.634406,1776.494261,1184.329507,-72166.195912
420.636972,6365.771101,3552.988522,-72166.195912
420.639537,5773.606348,-5773.606348,-73391.948708
420.642103,2664.741391,2220.617826,-73391.948708
420.644669,3849.070898,-14211.954086,-74617.701505
420.647234,4737.318029,-1184.329507,-73085.510509
420.649800,5773.606348,-6661.853478,-72625.853210
420.652366,3404.947333,296.082377,-73085.510509
420.654931,1776.494261,13027.624579,-72779.072310
420.657500,-296.082377,1776.494261,-72472.634111
420.660069,-4737.318029,5181.441594,-72932.291410
420.662639,-2072.576638,-6365.771101,-73851.606007
420.665208,-1036.288319,11991.336260,-74311.263306
420.667777,3256.906145,-5773.606348,-74311.263306
420.670346,3701.029710,3256.906145,-73545.167808
420.672915,1628.453072,3404.947333,-72625.853210
420.675484,2072.576638,-2516.700203,-72932.291410
420.678053,-2220.617826,5921.647536,-72472.634111
420.680622,-2664.741391,2812.782580,-73238.729609
420.683191,-1480.411884,-2516.700203,-72625.853210
420.685760,-1184.329507,5921.647536,-72932.291410
420.688329,3849.070898,-148.041188,-72779.072310
420.690898,5625.565159,-3404.947333,-74004.825107
420.693467,5033.400406,740.205942,-73698.386908
420.696036,1924.535449,-3404.947333,-73391.948708
420.698605,1924.535449,1628.453072,-71859.757712
420.701174,148.041188,4737.318029,-71859.757712
420.703743,1776.494261,2072.576638,-72166.195912
420.706312,-148.041188,6661.853478,-72319.415011
420.708881,740.205942,444.123565,-73545.167808
420.711450,-4145.153275,888.247130,-74311.263306
420.714019,-2072.576638,1184.329507,-73851.606007
420.716589,-1184.329507,1924.535449,-73391.948708
420.719158,1480.411884,4441.235652,-73085.510509
420.721727,3108.864956,148.041188,-73085.510509
420.724296,2960.823768,148.041188,-73545.167808
420.726865,3256.906145,3552.988522,-72779.072310
420.729434,2664.741391,-3552.988522,-73238.729609
420.732003,444.123565,2516.700203,-71553.319513
420.734572,740.205942,-592.164754,-72625.853210
420.737141,3256.906145,-1480.411884,-74770.920605
420.739710,5921.647536,-7105.977043,-75230.577904
420.742279,6513.812290,-7402.059420,-75690.235202
420.744848,9622.677246,-7994.224174,-73085.510509
420.747417,7254.018232,-592.164754,-71553.319513
420.749986,5921.647536,740.205942,-70634.004916
420.752555,2072.576638,592.164754,-72012.976812
420.755124,2072.576638,-2664.741391,-73085.510509
420.757693,3849.070898,-3849.070898,-74464.482406
420.760265,6217.729913,-11251.130318,-74464.482406
420.762837,5921.647536,-592.164754,-74158.044206
420.765410,6661.853478,-1332.370696,-73698.386908
420.767982,2220.617826,1924.535449,-72319.415011
420.770554,5921.647536,3404.947333,-72472.634111
420.773126,4589.276840,-8734.430116,-73238.729609
420.775698,-296.082377,2812.782580,-72932.291410
420.778270,3108.864956,-4441.235652,-74770.920605
420.780842,8142.265362,-7698.141797,-72166.195912
420.783414,4441.235652,3404.947333,-73698.386908
420.785986,7994.224174,-11843.295072,-74004.825107
420.788559,6809.894666,-740.205942,-73545.167808
420.791131,8438.347739,-6809.894666,-72625.853210
420.793703,5625.565159,-3997.112087,-71859.757712
420.796275,4885.359217,148.041188,-71553.319513
420.798847,3849.070898,2516.700203,-72932.291410
420.801419,4589.276840,-2220.617826,-73545.167808
420.803991,2516.700203,-5329.482782,-74311.263306
420.806563,7402.059420,-6661.853478,-74004.825107
420.809135,5773.606348,-6957.935855,-72779.072310
420.811708,4885.359217,-1036.288319,-72166.195912
420.814280,2812.782580,10214.842000,-73391.948708
420.816852,-296.082377,4293.194464,-72012.976812
420.819424,-7105.977043,4293.194464,-73238.729609
420.821996,-3404.947333,-6217.729913,-73698.386908
420.824568,3108.864956,10066.800811,-74004.825107
420.827140,1332.370696,-4145.153275,-75077.358804
420.829712,592.164754,1332.370696,-73085.510509
420.832284,2368.659014,2516.700203,-71553.319513
420.834857,-888.247130,2664.741391,-72932.291410
420.837429,-888.247130,1628.453072,-73391.948708
420.840001,1480.411884,2812.782580,-73391.948708
420.842573,-1184.329507,4145.153275,-72472.634111
420.845145,-1924.535449,296.082377,-72625.853210
420.847717,148.041188,10214.842000,-73545.167808
420.850289,8586.388927,-4145.153275,-73238.729609
420.852861,3997.112087,4145.153275,-75383.797003
420.855433,3256.906145,10807.006753,-73085.510509
420.858006,2072.576638,-3552.988522,-73391.948708
420.860578,-3256.906145,8142.265362,-72319.415011
420.863123,-1924.535449,3997.112087,-72319.415011
420.865669,-2072.576638,3256.906145,-73545.167808
420.868214,-3997.112087,2960.823768,-73851.606007
420.870759,1924.535449,1480.411884,-74158.044206
420.873305,1184.329507,444.123565,-73238.729609
420.875850,0.000000,2220.617826,-73238.729609
420.878396,1036.288319,3997.112087,-72932.291410
420.880941,444.123565,1036.288319,-72779.072310
420.883487,3404.947333,1628.453072,-73238.729609
420.886032,6957.935855,2220.617826,-73391.948708
420.888577,-2368.659014,2220.617826,-72166.195912
420.891123,-1628.453072,-1036.288319,-72012.976812
420.893668,4293.194464,0.000000,-72472.634111
420.896214,5329.482782,-6513.812290,-74770.920605
420.898759,7994.224174,-5625.565159,-75690.235202
420.901305,10658.965565,-9474.636058,-74004.825107
420.903850,7402.059420,-1036.288319,-72012.976812
420.906395,5181.441594,-3256.906145,-71706.538613
420.908941,2072.576638,6217.729913,-71706.538613
420.911486,3256.906145,-3701.029710,-73238.729609
420.914032,5921.647536,-8438.347739,-74004.825107
420.916577,5181.441594,-3849.070898,-74158.044206
420.919123,7105.977043,-5921.647536,-74311.263306
420.921668,6661.853478,-1184.329507,-73545.167808
420.924213,2960.823768,1628.453072,-73391.948708
420.926759,5329.482782,3552.988522,-72625.853210
420.929304,3849.070898,-9178.553681,-73085.510509
420.931850,296.082377,6661.853478,-73085.510509
420.934395,2368.659014,1184.329507,-74617.701505
420.936941,6957.935855,-11695.253884,-72625.853210
420.939486,7846.182985,6365.771101,-71859.757712
420.942031,9030.512492,-12287.418637,-73391.948708
420.944577,4441.235652,-2220.617826,-73698.386908
420.947122,7105.977043,-3849.070898,-72625.853210
420.949668,8438.347739,-7846.182985,-72625.853210
420.952213,4885.359217,4885.359217,-72625.853210
420.954759,2072.576638,-2960.823768,-73085.510509
420.957304,1480.411884,-2812.782580,-73238.729609
420.959850,4441.235652,-5773.606348,-74924.139704
420.962395,7105.977043,-9770.718434,-73545.167808
420.964948,7402.059420,-2072.576638,-73238.729609
420.967500,5477.523971,-5921.647536,-72932.291410
420.970053,2812.782580,18209.066173,-72625.853210
420.972606,-3997.112087,3256.906145,-72166.195912
420.975159,-4441.235652,148.041188,-72932.291410
420.977711,444.123565,-1924.535449,-73698.386908
420.980264,-148.041188,7698.141797,-74924.139704
420.982817,592.164754,-5773.606348,-74311.263306
420.985370,2516.700203,-148.041188,-72625.853210
420.987922,2812.782580,7550.100608,-71553.319513
420.990475,-888.247130,444.123565,-72779.072310
420.993028,-1332.370696,4589.276840,-73085.510509
420.995581,-444.123565,4441.235652,-73851.606007
420.998133,-1332.370696,-1332.370696,-73698.386908
421.000686,1036.288319,4885.359217,-71093.662214
421.003239,5329.482782,-5625.565159,-72319.415011
421.005792,5033.400406,3108.864956,-74617.701505
421.008344,5181.441594,-4589.276840,-74311.263306
421.010897,2220.617826,2812.782580,-73085.510509
421.013450,1036.288319,5181.441594,-71553.319513
421.016003,-5181.441594,1036.288319,-72779.072310
421.018555,-2368.659014,11399.171507,-73238.729609
421.021108,2072.576638,-3701.029710,-72472.634111
421.023661,-1480.411884,7105.977043,-73545.167808
421.026214,1628.453072,-296.082377,-75077.358804
421.028766,1924.535449,-296.082377,-73391.948708
421.031319,-296.082377,3997.112087,-71859.757712
421.033872,2072.576638,-888.247130,-72625.853210
421.036425,2516.700203,4145.153275,-73085.510509
421.038977,4293.194464,2516.700203,-73085.510509
421.041530,-1628.453072,1776.494261,-72472.634111
421.044083,-2072.576638,-1332.370696,-72932.291410
421.046636,5477.523971,-1332.370696,-72625.853210
421.049188,4145.153275,-3552.988522,-73391.948708
421.051741,6957.935855,-7550.100608,-75077.358804
421.054294,9918.759623,-4737.318029,-74311.263306
421.056847,8142.265362,-1924.535449,-72472.634111
421.059399,5625.565159,-1480.411884,-72319.415011
421.061952,2220.617826,1184.329507,-72319.415011
421.064505,1628.453072,-1776.494261,-73085.510509
421.067035,4589.276840,-8142.265362,-73545.167808
421.069565,2960.823768,-3997.112087,-73851.606007
421.072095,7105.977043,-1184.329507,-73851.606007
421.074625,8142.265362,-2516.700203,-74004.825107
421.077155,8734.430116,4589.276840,-72319.415011
421.079685,6217.729913,-7105.977043,-72012.976812
421.082215,592.164754,-5033.400406,-72166.195912
421.084745,-2516.700203,-1776.494261,-73391.948708
421.087275,4145.153275,-7698.141797,-73238.729609
421.089805,5033.400406,-2960.823768,-74158.044206
421.092335,6809.894666,-888.247130,-73545.167808
421.094865,10214.842000,-10658.965565,-73085.510509
421.097395,5921.647536,-3552.988522,-73085.510509
421.099924,8438.347739,-3849.070898,-72472.634111
421.102454,4589.276840,-2220.617826,-72625.853210
421.104984,2368.659014,1036.288319,-73391.948708
421.107514,3108.864956,-148.041188,-73238.729609
421.110044,4441.235652,-6809.894666,-73085.510509
421.112574,6069.688724,-8290.306550,-73238.729609
421.115104,7994.224174,-3552.988522,-72779.072310
421.117634,5625.565159,-5329.482782,-72779.072310
421.120164,2220.617826,14804.118840,-72932.291410
421.122694,-444.123565,6365.771101,-72932.291410
421.125224,-5329.482782,5329.482782,-73238.729609
421.127754,0.000000,-6217.729913,-73545.167808
421.130284,1628.453072,6957.935855,-74770.920605
421.132814,1184.329507,-1628.453072,-75537.016103
421.135344,444.123565,-2960.823768,-72779.072310
421.137874,2220.617826,6069.688724,-71246.881314
421.140404,1628.453072,5181.441594,-71859.757712
421.142934,1480.411884,-148.041188,-73391.948708
421.145464,-1184.329507,3108.864956,-74004.825107
421.147994,-4293.194464,8734.430116,-73698.386908
421.150524,-4145.153275,-2220.617826,-72932.291410
421.153054,592.164754,6365.771101,-72625.853210
421.155584,3997.112087,-1480.411884,-74311.263306
421.158114,5181.441594,-4293.194464,-73085.510509
421.160644,888.247130,7698.141797,-72472.634111
421.163174,1628.453072,-4293.194464,-72625.853210
421.165704,-3849.070898,6809.894666,-73238.729609
421.168244,-3997.112087,3256.906145,-72472.634111
421.170785,-1480.411884,592.164754,-73698.386908
421.173325,1924.535449,3849.070898,-73698.386908
421.175866,888.247130,-1036.288319,-74004.825107
421.178406,888.247130,3849.070898,-73545.167808
421.180946,1332.370696,3404.947333,-73085.510509
421.183487,5477.523971,-3108.864956,-73238.729609
421.186027,2072.576638,3997.112087,-73391.948708
421.188567,1332.370696,7846.182985,-72166.195912
421.191108,-1184.329507,-3701.029710,-72472.634111
421.193648,740.205942,-1184.329507,-73391.948708
421.196189,3701.029710,-592.164754,-73545.167808
421.198729,6809.894666,-15100.201217,-74158.044206
421.201269,6661.853478,-8290.306550,-74158.044206
421.203810,9474.636058,-2960.823768,-73085.510509
421.206350,7402.059420,-1036.288319,-72472.634111
421.208891,5033.400406,3404.947333,-72319.415011
421.211431,4441.235652,-2960.823768,-73391.948708
421.213971,296.082377,-5477.523971,-73391.948708
421.216512,1924.535449,-7254.018232,-73851.606007
421.219052,6957.935855,-6365.771101,-73851.606007
421.221592,7698.141797,-740.205942,-74311.263306
421.224133,10066.800811,740.205942,-73085.510509
421.226673,6661.853478,-5181.441594,-73085.510509
421.229214,1036.288319,-5033.400406,-72166.195912
421.231754,296.082377,5033.400406,-72779.072310
421.234294,5773.606348,-13027.624579,-73085.510509
421.236835,2368.659014,-1184.329507,-74004.825107
421.239375,9622.677246,296.082377,-73238.729609
421.241916,9326.594869,-12287.418637,-72625.853210
421.244456,7550.100608,3701.029710,-72166.195912
421.246996,9030.512492,-11695.253884,-72932.291410
421.249537,4589.276840,-5033.400406,-72625.853210
421.252077,2220.617826,296.082377,-73545.167808
421.254618,1628.453072,-1184.329507,-73085.510509
421.257158,6069.688724,-3552.988522,-73238.729609
421.259698,7846.182985,-12287.418637,-74158.044206
421.262239,4885.359217,-592.164754,-72625.853210
421.264779,4293.194464,-11547.212695,-73085.510509
421.267319,2368.659014,17468.860231,-72779.072310
421.269869,-1776.494261,4885.359217,-73391.948708
421.272418,-2812.782580,-1924.535449,-73085.510509
421.274967,-148.041188,2516.700203,-73238.729609
421.277517,444.123565,2516.700203,-74924.139704
421.280066,296.082377,740.205942,-74617.701505
421.282615,1628.453072,-3849.070898,-72932.291410
421.285164,4885.359217,4441.235652,-71706.538613
421.287713,-296.082377,9178.553681,-71553.319513
421.290262,888.247130,2516.700203,-73851.606007
421.292812,-888.247130,444.123565,-73238.729609
421.295361,-1480.411884,6513.812290,-71859.757712
421.297910,444.123565,1628.453072,-72779.072310
421.300459,3404.947333,-3404.947333,-72625.853210
421.303008,5477.523971,6217.729913,-74617.701505
421.305557,5033.400406,-1480.411884,-73085.510509
421.308107,1184.329507,0.000000,-72166.195912
421.310656,-3404.947333,9770.718434,-73085.510509
421.313205,-2368.659014,-1036.288319,-72472.634111
421.315754,-6217.729913,9622.677246,-73238.729609
421.318303,592.164754,-1776.494261,-73391.948708
421.320852,-1480.411884,1332.370696,-73851.606007
421.323402,1776.494261,3108.864956,-74770.920605
421.325951,2664.741391,0.000000,-73391.948708
421.328500,2368.659014,296.082377,-72625.853210
421.331049,4293.194464,6069.688724,-73851.606007
421.333598,1776.494261,2960.823768,-72625.853210
421.336147,-1184.329507,592.164754,-72012.976812
421.338697,-1628.453072,-4737.318029,-72625.853210
421.341246,3256.906145,3256.906145,-73698.386908
421.343795,7698.141797,-14656.077652,-73085.510509
421.346344,5329.482782,-7402.059420,-73698.386908
421.348893,8438.347739,-1924.535449,-72472.634111
421.351442,6513.812290,-3552.988522,-73391.948708
421.353992,5329.482782,3256.906145,-72472.634111
421.356541,3552.988522,-1480.411884,-72625.853210
421.359090,3701.029710,-1628.453072,-72779.072310
421.361639,2516.700203,-11103.089130,-73391.948708
421.364188,4441.235652,-444.123565,-73238.729609
421.366737,8142.265362,-5921.647536,-73698.386908
421.369287,4885.359217,-3404.947333,-74004.825107
421.371843,5625.565159,5921.647536,-74158.044206
421.374400,3849.070898,-4885.359217,-71859.757712
421.376957,5181.441594,-1184.329507,-70940.443115
421.379514,2072.576638,-1776.494261,-74311.263306
421.382070,6365.771101,-5033.400406,-73238.729609
421.384627,7105.977043,-5921.647536,-73698.386908
421.387184,8734.430116,-4145.153275,-72625.853210
421.389740,7254.018232,-8290.306550,-72779.072310
421.392297,4145.153275,296.082377,-72472.634111
421.394854,5921.647536,-4145.153275,-72932.291410
421.397411,3108.864956,1628.453072,-73391.948708
421.399967,740.205942,-6365.771101,-74464.482406
421.402524,4441.235652,-4589.276840,-73851.606007
421.405081,6957.935855,-6217.729913,-73391.948708
421.407638,3997.112087,-9918.759623,-72779.072310
421.410194,6809.894666,5625.565159,-72625.853210
421.412751,-888.247130,10066.800811,-72166.195912
421.415308,-3404.947333,10066.800811,-72472.634111
421.417865,-3404.947333,-1184.329507,-73238.729609
421.420421,740.205942,1924.535449,-74464.482406
421.422978,3108.864956,3997.112087,-75077.358804
421.425535,592.164754,0.000000,-74004.825107
421.428091,1480.411884,-444.123565,-71706.538613
421.430648,1184.329507,8438.347739,-71553.319513
421.433205,-888.247130,1480.411884,-72932.291410
421.435762,740.205942,3997.112087,-74311.263306
421.438318,-1332.370696,3552.988522,-74770.920605
421.440875,-592.164754,6513.812290,-72319.415011
421.443432,5033.400406,-9030.512492,-71246.881314
421.445989,740.205942,9030.512492,-72625.853210
421.448545,3701.029710,13027.624579,-74464.482406
421.451102,7402.059420,-11547.212695,-72625.853210
421.453659,-5921.647536,15840.407159,-72472.634111
421.456215,-296.082377,-5181.441594,-72625.853210
421.458772,-5181.441594,9622.677246,-72319.415011
421.461329,-1776.494261,3108.864956,-73085.510509
421.463886,888.247130,-3997.112087,-73698.386908
421.466442,148.041188,8882.471304,-73391.948708
421.468999,1776.494261,-592.164754,-73085.510509
421.471556,2960.823768,-1924.535449,-73085.510509
421.474118,3701.029710,7698.141797,-72472.634111
421.476680,3404.947333,296.082377,-73238.729609
421.479243,-2812.782580,6661.853478,-72319.415011
421.481805,-2220.617826,-5181.441594,-73238.729609
421.484367,6217.729913,2516.700203,-73391.948708
421.486930,5921.647536,-11991.336260,-74464.482406
421.489492,8438.347739,-13027.624579,-73851.606007
421.492054,7698.141797,-4589.276840,-72166.195912
421.494616,7402.059420,-1184.329507,-72625.853210
421.497179,5773.606348,3108.864956,-72472.634111
421.499741,2368.659014,0.000000,-73391.948708
421.502303,4589.276840,-1628.453072,-74158.044206
421.504866,1036.288319,-11547.212695,-73085.510509
421.507428,2664.741391,-5921.647536,-72472.634111
421.509990,8438.347739,-3256.906145,-72625.853210
421.512552,7846.182985,6365.771101,-74158.044206
421.515115,11251.130318,-3552.988522,-73851.606007
421.517677,3552.988522,-9178.553681,-73238.729609
421.520239,-888.247130,1924.535449,-70787.224015
421.522802,3701.029710,-4145.153275,-73391.948708
421.525364,7846.182985,-9770.718434,-75383.797003
421.527926,8142.265362,1036.288319,-72779.072310
421.530488,12435.459826,-3997.112087,-72779.072310
421.533051,7254.018232,-6069.688724,-73085.510509
421.535613,6365.771101,888.247130,-72625.853210
421.538175,4145.153275,-9178.553681,-72779.072310
421.540737,1628.453072,3701.029710,-72932.291410
421.543300,4293.194464,-10066.800811,-74158.044206
421.545862,5921.647536,-2516.700203,-74464.482406
421.548424,6809.894666,-2664.741391,-72012.976812
421.550987,6365.771101,-11843.295072,-72625.853210
421.553549,-740.205942,18209.066173,-72166.195912
421.556111,-2960.823768,3701.029710,-73085.510509
421.558673,-4885.359217,3701.029710,-73085.510509
421.561236,148.041188,-592.164754,-74158.044206
421.563798,1332.370696,3997.112087,-75077.358804
421.566360,444.123565,2072.576638,-74004.825107
421.568923,1332.370696,-2664.741391,-73238.729609
421.571485,3404.947333,5181.441594,-70634.004916
421.574047,592.164754,4589.276840,-72319.415011
421.576614,888.247130,-1184.329507,-73391.948708
421.579181,-1924.535449,7846.182985,-75230.577904
421.581748,-1776.494261,1480.411884,-73545.167808
421.584315,-1036.288319,4441.235652,-72932.291410
421.586882,3701.029710,-4885.359217,-72625.853210
421.589449,1480.411884,-1036.288319,-73698.386908
421.592016,592.164754,7105.977043,-72779.072310
421.594583,1776.494261,-2072.576638,-73238.729609
421.597150,-1332.370696,7550.100608,-72779.072310
421.599717,-4441.235652,4589.276840,-72932.291410
421.602284,-3997.112087,0.000000,-73085.510509
421.604851,-2220.617826,1924.535449,-73085.510509
421.607417,740.205942,2960.823768,-74158.044206
421.609984,3108.864956,5033.400406,-73698.386908
421.612551,5181.441594,-6809.894666,-73391.948708
421.615118,2812.782580,5181.441594,-73391.948708
421.617685,1184.329507,7254.018232,-72319.415011
421.620252,-1924.535449,-2812.782580,-72932.291410
421.622819,-2516.700203,-2072.576638,-72625.853210
421.625386,3256.906145,4441.235652,-73851.606007
421.627953,5477.523971,-18505.148550,-75077.358804
421.630520,8438.347739,-8734.430116,-73238.729609
421.633087,9622.677246,-6809.894666,-72319.415011
421.635654,5625.565159,-1332.370696,-72012.976812
421.638221,5625.565159,2220.617826,-73085.510509
421.640788,1924.535449,2812.782580,-73698.386908
421.643355,5033.400406,-3701.029710,-73545.167808
421.645922,4589.276840,-14952.160028,-73545.167808
421.648489,1480.411884,-3552.988522,-72472.634111
421.651056,9770.718434,0.000000,-71859.757712
421.653623,10510.924376,-3849.070898,-74770.920605
421.656189,3997.112087,1184.329507,-73391.948708
421.658761,1036.288319,-4293.194464,-73391.948708
421.661332,1332.370696,-4885.359217,-72319.415011
421.663903,2516.700203,-1924.535449,-73391.948708
421.666474,6217.729913,-6661.853478,-74158.044206
421.669045,12287.418637,-2812.782580,-73698.386908
421.671616,11843.295072,-2516.700203,-72779.072310
421.674187,6809.894666,-5329.482782,-72166.195912
421.676758,1036.288319,-740.205942,-73085.510509
421.679329,4589.276840,-2220.617826,-73545.167808
421.681900,3997.112087,-7994.224174,-74004.825107
421.684471,5181.441594,-4145.153275,-73545.167808
421.687042,6217.729913,-4589.276840,-73851.606007
421.689613,2812.782580,-6809.894666,-72779.072310
421.692184,2516.700203,10214.842000,-73238.729609
421.694755,592.164754,4885.359217,-72779.072310
421.697326,-5181.441594,9326.594869,-72625.853210
421.699897,-592.164754,-4589.276840,-73851.606007
421.702468,-592.164754,6217.729913,-73851.606007
421.705039,1184.329507,2516.700203,-74924.139704
421.707610,1776.494261,-2220.617826,-73545.167808
421.710181,1184.329507,2664.741391,-71859.757712
421.712752,444.123565,3108.864956,-72012.976812
421.715323,1036.288319,5773.606348,-72319.415011
421.717894,2664.741391,-1480.411884,-73238.729609
421.720465,-1332.370696,6661.853478,-74158.044206
421.723036,-3404.947333,-6069.688724,-73545.167808
421.725607,2664.741391,6365.771101,-73238.729609
421.728178,5921.647536,2960.823768,-72779.072310
421.730749,1628.453072,-1628.453072,-73698.386908
421.733321,-2516.700203,7105.977043,-72779.072310
421.735892,-2220.617826,-740.205942,-72472.634111
421.738463,-3997.112087,7402.059420,-73085.510509
421.741034,148.041188,2368.659014,-74158.044206
421.743605,-888.247130,-296.082377,-73545.167808
421.746176,-1776.494261,5477.523971,-73545.167808
421.748747,148.041188,3108.864956,-73698.386908
421.751318,5921.647536,-5181.441594,-72779.072310
421.753889,4293.194464,4293.194464,-73238.729609
421.756460,1332.370696,6217.729913,-73238.729609
421.759031,-3552.988522,-1184.329507,-72012.976812
421.761604,-740.205942,-4885.359217,-72625.853210
421.764178,6217.729913,3404.947333,-73698.386908
421.766751,7402.059420,-18357.107362,-73698.386908
421.769325,9770.718434,-12879.583391,-73851.606007
421.771899,9030.512492,444.123565,-72012.976812
421.774472,6661.853478,-2664.741391,-72319.415011
421.777046,6069.688724,6217.729913,-72472.634111
421.779619,2220.617826,-888.247130,-74158.044206
421.782193,3404.947333,-2072.576638,-74311.263306
421.784766,3701.029710,-10510.924376,-73851.606007
421.787340,3256.906145,-4145.153275,-72625.853210
421.789913,11103.089130,4145.153275,-72166.195912
421.792487,9918.759623,-5625.565159,-74158.044206
421.795060,1332.370696,-888.247130,-74004.825107
421.797634,-888.247130,3849.070898,-73545.167808
421.800207,8142.265362,-15544.324782,-71706.538613
421.802781,1924.535449,-1776.494261,-73085.510509
421.805354,6513.812290,1332.370696,-73545.167808
421.807928,12287.418637,-13027.624579,-72779.072310
421.810501,5329.482782,4885.359217,-73085.510509
421.813075,8290.306550,-6513.812290,-72779.072310
421.815649,3404.947333,-5773.606348,-73085.510509
421.818222,1332.370696,-1924.535449,-73085.510509
421.820796,3552.988522,-9770.718434,-74158.044206
421.823369,6069.688724,-2220.617826,-73085.510509
421.825943,5477.523971,-1628.453072,-72166.195912
421.828516,8734.430116,-1924.535449,-72625.853210
421.831090,-1628.453072,16284.530724,-72472.634111
421.833663,-3701.029710,2072.576638,-73238.729609
421.836237,-4737.318029,1628.453072,-73851.606007
421.838810,740.205942,3552.988522,-73851.606007
421.841384,1480.411884,2368.659014,-75383.797003
421.843957,444.123565,1332.370696,-73698.386908
421.846531,1628.453072,444.123565,-72932.291410
421.849104,1480.411884,5181.441594,-71706.538613
421.851678,1036.288319,2072.576638,-72932.291410
421.854252,148.041188,2072.576638,-73391.948708
421.856825,-1628.453072,6809.894666,-74617.701505
421.859399,-3997.112087,2072.576638,-73391.948708
421.861972,-296.082377,-4737.318029,-73391.948708
421.864548,2960.823768,7402.059420,-73238.729609
421.867124,-1480.411884,1332.370696,-74924.139704
421.869699,1184.329507,-296.082377,-73085.510509
421.872275,296.082377,6809.894666,-71553.319513
421.874851,-4885.359217,4441.235652,-72166.195912
421.877426,-5625.565159,4293.194464,-73851.606007
421.880002,444.123565,2072.576638,-74464.482406
421.882578,2072.576638,3256.906145,-73391.948708
421.885153,592.164754,1184.329507,-73085.510509
421.887729,3108.864956,-3701.029710,-73085.510509
421.890305,3849.070898,4293.194464,-72779.072310
421.892881,-888.247130,8142.265362,-72166.195912
421.895456,592.164754,0.000000,-72472.634111
421.898032,2516.700203,-6217.729913,-73085.510509
421.900608,1628.453072,2812.782580,-74311.263306
421.903183,6217.729913,-18061.024985,-73851.606007
421.905759,8586.388927,-11251.130318,-73391.948708
421.908335,10066.800811,-1480.411884,-71859.757712
421.910911,8142.265362,-2072.576638,-72012.976812
421.913486,4885.359217,6217.729913,-73085.510509
421.916062,1776.494261,-3108.864956,-74464.482406
421.918638,2368.659014,-740.205942,-74158.044206
421.921213,4737.318029,-11991.336260,-74004.825107
421.923789,4441.235652,-2960.823768,-72319.415011
421.926365,8290.306550,8142.265362,-72932.291410
421.928941,9326.594869,-8142.265362,-74464.482406
421.931516,3997.112087,10066.800811,-73851.606007
421.934092,4885.359217,-6957.935855,-73085.510509
421.936668,2516.700203,-10807.006753,-72932.291410
421.939243,3849.070898,1924.535449,-73698.386908
421.941819,8290.306550,-12879.583391,-73238.729609
421.944395,10362.883188,5181.441594,-72779.072310
421.946970,8734.430116,-4293.194464,-73085.510509
421.949546,5921.647536,-6513.812290,-73085.510509
421.952122,1776.494261,1924.535449,-73085.510509
421.954698,6217.729913,-13471.748144,-74158.044206
421.957273,3552.988522,-888.247130,-73238.729609
421.959849,4737.318029,-7402.059420,-73085.510509
421.962425,3404.947333,-1924.535449,-72625.853210
421.965000,1332.370696,18209.066173,-72779.072310
421.967578,-2220.617826,0.000000,-72932.291410
421.970156,-4885.359217,6957.935855,-73085.510509
421.972734,444.123565,-3849.070898,-73698.386908
421.975311,-740.205942,8882.471304,-74004.825107
421.977889,888.247130,2368.659014,-74770.920605
421.980467,2368.659014,-5625.565159,-73238.729609
421.983044,1480.411884,8438.347739,-71706.538613
421.985622,1332.370696,148.041188,-72472.634111
421.988200,-1332.370696,3849.070898,-73238.729609
421.990777,1332.370696,1924.535449,-73238.729609
421.993355,2220.617826,7550.100608,-74464.482406
421.995933,0.000000,-4441.235652,-72319.415011
421.998510,3552.988522,9918.759623,-73391.948708
422.001088,3849.070898,-4145.153275,-74464.482406
422.003666,-2812.782580,5921.647536,-74004.825107
422.006244,-2516.700203,5921.647536,-72166.195912
422.008821,-2072.576638,1332.370696,-72166.195912
422.011399,-6809.894666,8438.347739,-72932.291410
422.013977,-740.205942,3552.988522,-74924.139704
422.016554,2368.659014,444.123565,-74158.044206
422.019132,-888.247130,6661.853478,-73851.606007
422.021710,3849.070898,-5329.482782,-74158.044206
422.024287,3701.029710,3256.906145,-72625.853210
422.026865,-2368.659014,8882.471304,-72166.195912
422.029443,1480.411884,-4293.194464,-72012.976812
422.032020,3108.864956,148.041188,-73698.386908
422.034598,3701.029710,-1628.453072,-74617.701505
422.037176,7105.977043,-15988.448347,-73698.386908
422.039754,9326.594869,-11547.212695,-72779.072310
422.042331,10362.883188,-5625.565159,-72319.415011
422.044909,7698.141797,888.247130,-71553.319513
422.047487,7402.059420,5033.400406,-72779.072310
422.050064,888.247130,-2516.700203,-73698.386908
422.052642,3256.906145,-1036.288319,-74617.701505
422.055220,4441.235652,-13619.789333,-73851.606007
422.057797,5477.523971,-2664.741391,-71553.319513
422.060375,9326.594869,-3404.947333,-73391.948708
422.062953,3404.947333,-1036.288319,-73391.948708
422.065531,2960.823768,-148.041188,-73391.948708
422.068108,4441.235652,-2368.659014,-73085.510509
422.070687,5181.441594,-8586.388927,-72932.291410
422.073265,4885.359217,-4293.194464,-74004.825107
422.075844,12139.377449,-6069.688724,-73698.386908
422.078423,7994.224174,-2516.700203,-71859.757712
422.081001,6365.771101,2960.823768,-72472.634111
422.083580,5033.400406,-6513.812290,-73545.167808
422.086159,2664.741391,-8882.471304,-73698.386908
422.088737,3404.947333,-4145.153275,-74617.701505
422.091316,6809.894666,-9474.636058,-72779.072310
422.093895,3108.864956,592.164754,-72472.634111
422.096473,6069.688724,1480.411884,-72319.415011
422.099052,-2960.823768,15100.201217,-72932.291410
422.101631,-3701.029710,4293.194464,-72779.072310
422.104209,-592.164754,-4293.194464,-72779.072310
422.106788,444.123565,9474.636058,-74464.482406
422.109366,-148.041188,1184.329507,-74924.139704
422.111945,148.041188,-3552.988522,-73238.729609
422.114524,1776.494261,9474.636058,-72012.976812
422.117102,4145.153275,1036.288319,-72166.195912
422.119681,592.164754,1332.370696,-72932.291410
422.122260,1036.288319,1332.370696,-73085.510509
422.124838,-1776.494261,-7550.100608,-73238.729609
422.127417,-6365.771101,8290.306550,-72625.853210
422.129996,3552.988522,1776.494261,-72779.072310
422.132574,2516.700203,148.041188,-74311.263306
422.135153,-888.247130,8290.306550,-74004.825107
422.137731,444.123565,-888.247130,-72779.072310
422.140310,-2960.823768,1628.453072,-71553.319513
422.142889,-5477.523971,7994.224174,-72166.195912
422.145467,-3701.029710,6513.812290,-74464.482406
422.148046,444.123565,2368.659014,-74158.044206
422.150625,1924.535449,2072.576638,-74004.825107
422.153203,5181.441594,-1184.329507,-73851.606007
422.155782,2960.823768,2220.617826,-72779.072310
422.158361,-1184.329507,6069.688724,-72319.415011
422.160939,444.123565,-444.123565,-71706.538613
422.163518,444.123565,-740.205942,-73391.948708
422.166097,4145.153275,-4885.359217,-74770.920605
422.168675,8142.265362,-13619.789333,-74158.044206
422.171254,7698.141797,-10658.965565,-73391.948708
422.173833,10214.842000,-7994.224174,-71859.757712
422.176413,7105.977043,-2072.576638,-71706.538613
422.178993,3997.112087,3701.029710,-72472.634111
422.181572,1480.411884,0.000000,-73545.167808
422.184152,6069.688724,592.164754,-74311.263306
422.186731,5477.523971,-10066.800811,-74004.825107
422.189311,2664.741391,-3404.947333,-72779.072310
422.191891,10510.924376,148.041188,-72472.634111
422.194470,4737.318029,-2516.700203,-73238.729609
422.197050,5921.647536,4293.194464,-72625.853210
422.199629,4885.359217,-8586.388927,-73698.386908
422.202209,6661.853478,-3108.864956,-72625.853210
422.204789,7698.141797,-8882.471304,-73545.167808
422.207368,5625.565159,-3997.112087,-73238.729609
422.209948,9770.718434,1184.329507,-71553.319513
422.212528,5921.647536,-6809.894666,-72779.072310
422.215107,5625.565159,1036.288319,-72932.291410
422.217687,5033.400406,-10955.047942,-75230.577904
422.220266,3997.112087,-8290.306550,-74158.044206
422.222846,3701.029710,-5921.647536,-73238.729609
422.225426,3108.864956,-148.041188,-72012.976812
422.228005,1628.453072,14359.995275,-72932.291410
422.230585,-1924.535449,3849.070898,-72932.291410
422.233164,-3849.070898,4589.276840,-72932.291410
422.235744,-148.041188,-6809.894666,-74311.263306
422.238324,-148.041188,11547.212695,-74158.044206
422.240903,1480.411884,-592.164754,-74004.825107
422.243483,1480.411884,-3701.029710,-72932.291410
422.246062,1036.288319,11547.212695,-71400.100414
422.248642,1184.329507,-740.205942,-72779.072310
422.251222,740.205942,888.247130,-74158.044206
422.253801,1332.370696,8438.347739,-73238.729609
422.256381,1332.370696,-2812.782580,-73545.167808
422.258960,592.164754,7105.977043,-72319.415011
422.261540,6513.812290,0.000000,-73085.510509
422.264120,1480.411884,-2812.782580,-73545.167808
422.266699,-4589.276840,8586.388927,-74158.044206
422.269279,148.041188,-2812.782580,-72472.634111
422.271858,-5625.565159,7698.141797,-71859.757712
422.274438,-2812.782580,5033.400406,-72932.291410
422.276989,-296.082377,740.205942,-74464.482406
422.279540,-1480.411884,9770.718434,-73698.386908
422.282091,4885.359217,-6661.853478,-73851.606007
422.284642,4885.359217,-296.082377,-73085.510509
422.287193,-1924.535449,9770.718434,-72166.195912
422.289745,888.247130,-7698.141797,-72932.291410
422.292296,-444.123565,2812.782580,-72625.853210
422.294847,6957.935855,-1184.329507,-73698.386908
422.297398,5329.482782,-16284.530724,-74311.263306
422.299949,7698.141797,-7105.977043,-73391.948708
422.302500,12287.418637,-12139.377449,-72625.853210
422.305051,7402.059420,-5773.606348,-71400.100414
422.307602,5181.441594,6217.729913,-72319.415011
422.310153,2516.700203,296.082377,-73698.386908
422.312704,5477.523971,-3997.112087,-74770.920605
422.315256,3849.070898,-7105.977043,-74311.263306
422.317807,4885.359217,-888.247130,-71859.757712
422.320358,9474.636058,-8142.265362,-73391.948708
422.322909,2516.700203,740.205942,-73851.606007
422.325460,1036.288319,7698.141797,-73391.948708
422.328011,7550.100608,-14804.118840,-72166.195912
422.330562,3849.070898,148.041188,-73238.729609
422.333113,10807.006753,-5921.647536,-74311.263306
422.335664,4737.318029,-10658.965565,-73851.606007
422.338215,10362.883188,7994.224174,-71553.319513
422.340767,7698.141797,-12879.583391,-72319.415011
422.343318,3997.112087,-3997.112087,-73391.948708
422.345869,7254.018232,-5329.482782,-74311.263306
422.348420,4293.194464,-13027.624579,-74617.701505
422.350971,2812.782580,3701.029710,-72472.634111
422.353522,5477.523971,-5773.606348,-72472.634111
422.356073,-740.205942,24870.919651,-72012.976812
422.358624,-1628.453072,444.123565,-73391.948708
422.361175,-3256.906145,444.123565,-72625.853210
422.363726,740.205942,5477.523971,-73851.606007
422.366278,592.164754,4441.235652,-75537.016103
422.368829,-3108.864956,1036.288319,-73238.729609
422.371380,2960.823768,-1776.494261,-72166.195912
422.373931,3404.947333,8142.265362,-71093.662214
422.376482,-148.041188,4441.235652,-72779.072310
422.379039,2960.823768,-3552.988522,-73085.510509
422.381596,-3256.906145,10955.047942,-74004.825107
422.384153,-5033.400406,6217.729913,-72932.291410
422.386710,1628.453072,-15692.365970,-71400.100414
422.389267,3552.988522,17468.860231,-71553.319513
422.391824,5625.565159,-2516.700203,-74617.701505
422.394381,-1036.288319,-148.041188,-74158.044206
422.396937,-4737.318029,11843.295072,-72472.634111
422.399494,-888.247130,-5477.523971,-72932.291410
422.402051,-8290.306550,11695.253884,-73085.510509
422.404608,-2368.659014,4441.235652,-73391.948708
422.407165,6069.688724,-1776.494261,-73851.606007
422.409722,3404.947333,5329.482782,-74004.825107
422.412279,5773.606348,444.123565,-73391.948708
422.414836,-1036.288319,4885.359217,-71400.100414
422.417393,-1776.494261,-7698.141797,-72779.072310
422.419950,3849.070898,5625.565159,-73698.386908
422.422507,7254.018232,-11103.089130,-74004.825107
422.425064,10214.842000,-13175.665768,-74464.482406
422.427621,9918.759623,-4885.359217,-73391.948708
422.430178,8438.347739,-7402.059420,-72319.415011
422.432735,6513.812290,2960.823768,-71553.319513
422.435292,5625.565159,2664.741391,-72166.195912
422.437849,1184.329507,-5773.606348,-73545.167808
422.440406,1924.535449,444.123565,-73698.386908
422.442963,7550.100608,-4885.359217,-72625.853210
422.445520,9622.677246,-10066.800811,-73698.386908
422.448076,1776.494261,4293.194464,-72779.072310
422.450633,4441.235652,1184.329507,-72779.072310
422.453190,4293.194464,-11251.130318,-72932.291410
422.455747,2960.823768,4145.153275,-73698.386908
422.458304,13471.748144,-13915.871710,-74311.263306
422.460861,6069.688724,-1184.329507,-73545.167808
422.463418,7698.141797,8438.347739,-71859.757712
422.465975,6513.812290,-10214.842000,-72012.976812
422.468532,3701.029710,592.164754,-72625.853210
422.471089,7698.141797,-10955.047942,-74004.825107
422.473646,4737.318029,-10214.842000,-74924.139704
422.476203,2220.617826,-148.041188,-73238.729609
422.478760,3256.906145,-5477.523971,-71859.757712
422.481322,-1776.494261,25167.002028,-72166.195912
422.483884,-3108.864956,-296.082377,-72625.853210
422.486446,-1924.535449,-888.247130,-73391.948708
422.489008,-148.041188,1480.411884,-74311.263306
422.491570,1480.411884,6661.853478,-75383.797003
422.494131,-1924.535449,2812.782580,-73698.386908
422.496693,3404.947333,-4145.153275,-72012.976812
422.499255,148.041188,10510.924376,-71706.538613
422.501817,-444.123565,6809.894666,-73085.510509
422.504379,740.205942,-6809.894666,-75690.235202
422.506941,-3849.070898,-148.041188,-74004.825107
422.509503,-3701.029710,12731.542202,-72319.415011
422.512065,740.205942,-12435.459826,-72779.072310
422.514627,-888.247130,11251.130318,-72166.195912
422.517189,1332.370696,5033.400406,-74004.825107
422.519751,592.164754,-5625.565159,-74464.482406
422.522313,-6809.894666,9178.553681,-73238.729609
422.524875,-2812.782580,6365.771101,-73238.729609
422.527437,-2072.576638,-148.041188,-73085.510509
422.529999,-3849.070898,7105.977043,-73085.510509
422.532561,4293.194464,-1628.453072,-73698.386908
422.535122,5033.400406,4441.235652,-73238.729609
422.537684,4441.235652,4293.194464,-72319.415011
422.540246,444.123565,-148.041188,-72012.976812
422.542808,1924.535449,592.164754,-72625.853210
422.545370,2664.741391,-5329.482782,-73391.948708
422.547932,5329.482782,-11547.212695,-73238.729609
422.550494,10807.006753,-11695.253884,-74158.044206
422.553056,10362.883188,-7402.059420,-72472.634111
422.555618,6809.894666,-1480.411884,-72319.415011
422.558180,5921.647536,592.164754,-72472.634111
422.560742,4293.194464,3552.988522,-72625.853210
422.563304,6217.729913,-7254.018232,-74004.825107
422.565866,888.247130,-7846.182985,-75077.358804
422.568428,2960.823768,-5625.565159,-72779.072310
422.570990,5625.565159,-2368.659014,-74311.263306
422.573552,5773.606348,-6069.688724,-72472.634111
422.576113,2812.782580,-1480.411884,-71553.319513
422.578675,4589.276840,-1776.494261,-73238.729609
422.581237,6217.729913,-7846.182985,-74158.044206
422.583774,8438.347739,-3108.864956,-74004.825107
422.586311,8882.471304,-5181.441594,-73238.729609
422.588848,8438.347739,444.123565,-71553.319513
422.591385,3849.070898,-7402.059420,-72625.853210
422.593922,4737.318029,-3849.070898,-74158.044206
422.596458,9474.636058,-12139.377449,-73698.386908
422.598995,3108.864956,-6217.729913,-73545.167808
422.601532,1480.411884,-888.247130,-73085.510509
422.604069,296.082377,17764.942608,-72932.291410
422.606606,-5773.606348,3256.906145,-73238.729609
422.609143,-4589.276840,592.164754,-73085.510509
422.611679,592.164754,-2368.659014,-74158.044206
422.614216,2368.659014,5773.606348,-74924.139704
422.616753,1184.329507,2220.617826,-75077.358804
422.619290,740.205942,-3552.988522,-72166.195912
422.621827,740.205942,11103.089130,-70787.224015
422.624364,1924.535449,1628.453072,-72625.853210
422.626900,444.123565,-1036.288319,-75383.797003
422.629437,-3108.864956,-4737.318029,-74617.701505
422.631974,-4737.318029,11399.171507,-73085.510509
422.634511,0.000000,-15100.201217,-72166.195912
422.637048,1036.288319,12139.377449,-71553.319513
422.639585,3108.864956,3256.906145,-73851.606007
422.642122,2220.617826,-6957.935855,-74158.044206
422.644658,-5625.565159,7698.141797,-73698.386908
422.647195,-1332.370696,3701.029710,-74158.044206
422.649732,-4441.235652,3404.947333,-72932.291410
422.652269,-2960.823768,3701.029710,-72472.634111
422.654806,3997.112087,-888.247130,-73391.948708
422.657343,3701.029710,4589.276840,-73085.510509
422.659879,2960.823768,5477.523971,-73391.948708
422.662416,2072.576638,-5625.565159,-73085.510509
422.664953,5477.523971,1776.494261,-72932.291410
422.667490,2664.741391,-9770.718434,-73851.606007
422.670027,4145.153275,-10214.842000,-73391.948708
422.672564,10066.800811,-9770.718434,-72779.072310
422.675100,11843.295072,-7402.059420,-73085.510509
422.677637,8438.347739,-1924.535449,-73238.729609
422.680174,5181.441594,-740.205942,-73238.729609
422.682711,0.000000,1332.370696,-72472.634111
422.685256,3849.070898,-9178.553681,-73391.948708
422.687802,2664.741391,-5181.441594,-73238.729609
422.690347,8438.347739,-3997.112087,-73545.167808
422.692892,4293.194464,-1332.370696,-73698.386908
422.695438,7994.224174,444.123565,-72779.072310
422.697983,1036.288319,-6957.935855,-73238.729609
422.700529,3701.029710,-1184.329507,-73391.948708
422.703074,8586.388927,-6661.853478,-73391.948708
422.705619,7994.224174,-2368.659014,-74004.825107
422.708165,9030.512492,-3997.112087,-73085.510509
422.710710,6365.771101,-2220.617826,-72472.634111
422.713255,6513.812290,-4885.359217,-72625.853210
422.715801,4293.194464,-11547.212695,-73545.167808
422.718346,5773.606348,-5033.400406,-73085.510509
422.720892,1924.535449,-4441.235652,-72932.291410
422.723437,3997.112087,7698.141797,-71859.757712
422.725982,-3108.864956,14952.160028,-72932.291410
422.728528,-4589.276840,3108.864956,-72472.634111
422.731073,-2368.659014,-444.123565,-73238.729609
422.733619,0.000000,2812.782580,-75383.797003
422.736164,3552.988522,6217.729913,-75690.235202
422.738709,-1480.411884,-3108.864956,-73391.948708
422.741255,1628.453072,10214.842000,-71400.100414
422.743800,2516.700203,5181.441594,-71400.100414
422.746345,740.205942,4145.153275,-72779.072310
422.748891,-740.205942,1924.535449,-75383.797003
422.751436,2072.576638,5625.565159,-73851.606007
422.753982,-1184.329507,-7994.224174,-73085.510509
422.756527,148.041188,10807.006753,-72932.291410
422.759072,4441.235652,-1036.288319,-72166.195912
422.761618,-888.247130,2960.823768,-73545.167808
422.764163,-3256.906145,6957.935855,-73545.167808
422.766708,-2516.700203,-148.041188,-74464.482406
422.769254,-5477.523971,5181.441594,-73851.606007
422.771799,-2960.823768,0.000000,-72932.291410
422.774345,740.205942,3701.029710,-72932.291410
422.776890,5033.400406,2812.782580,-72472.634111
422.779435,2072.576638,5625.565159,-73238.729609
422.781981,1332.370696,-1480.411884,-72932.291410
422.784526,6365.771101,-7550.100608,-74464.482406
422.787079,1480.411884,-1776.494261,-73085.510509
422.789631,7105.977043,-12583.501014,-72625.853210
422.792184,8882.471304,-14359.995275,-72625.853210
422.794736,7254.018232,1332.370696,-73238.729609
422.797289,9770.718434,-7105.977043,-73238.729609
422.799841,7846.182985,296.082377,-73545.167808
422.802394,3552.988522,592.164754,-73238.729609
422.804947,4885.359217,-14359.995275,-72932.291410
422.807499,1924.535449,3256.906145,-72166.195912
422.810052,6069.688724,-7698.141797,-74617.701505
422.812604,4441.235652,-1480.411884,-73698.386908
422.815157,9326.594869,-148.041188,-72932.291410
422.817709,1332.370696,-7254.018232,-73545.167808
422.820262,4589.276840,3552.988522,-73085.510509
422.822814,8586.388927,-13915.871710,-73238.729609
422.825367,3849.070898,1480.411884,-73851.606007
422.827920,10807.006753,-5033.400406,-73698.386908
422.830472,4885.359217,-4589.276840,-73391.948708
422.833025,9326.594869,-3404.947333,-72012.976812
422.835577,5921.647536,-15396.283594,-73698.386908
422.838130,3108.864956,-740.205942,-73085.510509
422.840682,-740.205942,-4885.359217,-73085.510509
422.843235,2072.576638,13915.871710,-73085.510509
422.845787,-1924.535449,9326.594869,-73085.510509
422.848340,-7994.224174,2812.782580,-74004.825107
422.850893,-2664.741391,-2220.617826,-73085.510509
422.853445,-888.247130,4441.235652,-74464.482406
422.855998,2664.741391,4293.194464,-74617.701505
422.858550,-148.041188,-3404.947333,-73085.510509
422.861103,3108.864956,8438.347739,-71246.881314
422.863655,1036.288319,7105.977043,-72012.976812
422.866208,-1776.494261,1628.453072,-75077.358804
422.868766,3701.029710,-5329.482782,-74004.825107
422.871325,-5181.441594,4589.276840,-73545.167808
422.873883,1480.411884,-7105.977043,-72779.072310
422.876442,1628.453072,5033.400406,-71859.757712
422.879000,-740.205942,5625.565159,-73238.729609
422.881559,-2220.617826,296.082377,-73545.167808
422.884117,-2664.741391,4589.276840,-73545.167808
422.886676,-444.123565,2516.700203,-74004.825107
422.889234,-3997.112087,7254.018232,-72932.291410
422.891793,-740.205942,-1924.535449,-73238.729609
422.894351,1628.453072,3552.988522,-72166.195912
422.896909,4737.318029,7254.018232,-72012.976812
422.899468,3256.906145,-1036.288319,-72932.291410
422.902026,2960.823768,-9770.718434,-72779.072310
422.904585,6069.688724,7105.977043,-74311.263306
422.907143,5773.606348,-15692.365970,-73391.948708
422.909702,5921.647536,-10510.924376,-73391.948708
422.912260,11251.130318,-7105.977043,-72166.195912
422.914819,8290.306550,-1924.535449,-72472.634111
422.917377,6513.812290,296.082377,-73085.510509
422.919936,5773.606348,-1924.535449,-73698.386908
422.922494,1036.288319,1036.288319,-73238.729609
422.925053,3701.029710,-12435.459826,-74004.825107
422.927611,5625.565159,-7105.977043,-72166.195912
422.930169,2812.782580,5181.441594,-73698.386908
422.932728,4293.194464,-14804.118840,-74004.825107
422.935286,1628.453072,6365.771101,-73238.729609
422.937845,5773.606348,3108.864956,-72625.853210
422.940403,9918.759623,-21021.848753,-72625.853210
422.942962,6513.812290,7550.100608,-73238.729609
422.945520,10362.883188,-10658.965565,-72932.291410
422.948079,4293.194464,-148.041188,-73238.729609
422.950637,9030.512492,-5625.565159,-73238.729609
422.953196,6513.812290,-15840.407159,-74311.263306
422.955754,4885.359217,888.247130,-72625.853210
422.958312,-148.041188,-9326.594869,-72932.291410
422.960871,3404.947333,10362.883188,-72319.415011
422.963429,-4737.318029,15988.448347,-72166.195912
422.965988,-6217.729913,296.082377,-73391.948708
422.968546,-1924.535449,3701.029710,-73238.729609
422.971081,1036.288319,148.041188,-74617.701505
422.973615,2960.823768,6217.729913,-74617.701505
422.976150,-1628.453072,-592.164754,-73085.510509
422.978685,740.205942,4885.359217,-71093.662214
422.981219,1628.453072,6957.935855,-71246.881314
422.983754,2220.617826,5181.441594,-73545.167808
422.986288,5329.482782,-1776.494261,-74617.701505
422.988823,-2368.659014,-1480.411884,-74311.263306
422.991357,-1480.411884,1332.370696,-73851.606007
422.993892,3404.947333,-1480.411884,-70787.224015
422.996427,444.123565,2220.617826,-72319.415011
422.998961,-3701.029710,3701.029710,-74004.825107
423.001496,-2812.782580,6069.688724,-74004.825107
423.004030,-2368.659014,444.123565,-74311.263306
423.006565,-2812.782580,5181.441594,-73085.510509
423.009099,-444.123565,-1480.411884,-73085.510509
423.011634,592.164754,296.082377,-72779.072310
423.014169,1480.411884,11251.130318,-71553.319513
423.016703,1924.535449,-444.123565,-72012.976812
423.019238,4589.276840,-12731.542202,-73085.510509
423.021772,8734.430116,8882.471304,-74004.825107
423.024307,7402.059420,-19393.395680,-73545.167808
423.026842,4885.359217,-10510.924376,-72932.291410
423.029376,9622.677246,-3997.112087,-71553.319513
423.031911,10362.883188,-2812.782580,-72319.415011
423.034445,6365.771101,-148.041188,-73238.729609
423.036980,4589.276840,-2516.700203,-74004.825107
423.039514,2812.782580,-5033.400406,-73391.948708
423.042049,1480.411884,-6957.935855,-72932.291410
423.044584,6365.771101,8142.265362,-72319.415011
423.047118,12139.377449,-10510.924376,-73851.606007
423.049653,3997.112087,-444.123565,-72625.853210
423.052187,4589.276840,4737.318029,-74311.263306
423.054722,6069.688724,-17764.942608,-72472.634111
423.057256,5181.441594,1036.288319,-72932.291410
423.059791,9918.759623,-4441.235652,-73238.729609
423.062326,6957.935855,-6069.688724,-73085.510509
423.064860,6513.812290,1184.329507,-72166.195912
423.067395,10214.842000,-12139.377449,-73851.606007
423.069929,6661.853478,-4737.318029,-73545.167808
423.072473,4293.194464,-11251.130318,-73698.386908
423.075018,3404.947333,-2664.741391,-72625.853210
423.077562,-2664.741391,21317.931130,-72319.415011
423.080106,-7402.059420,5921.647536,-74158.044206
423.082650,-4737.318029,1924.535449,-73238.729609
423.085195,-1184.329507,-2220.617826,-75077.358804
423.087739,2220.617826,5921.647536,-75537.016103
423.090283,2072.576638,2960.823768,-74004.825107
423.092827,296.082377,-3701.029710,-72012.976812
423.095372,2220.617826,10362.883188,-70327.566716
423.097916,1628.453072,2960.823768,-72932.291410
423.100460,3256.906145,-296.082377,-73238.729609
423.103004,-3701.029710,148.041188,-75230.577904
423.105548,1036.288319,11399.171507,-74004.825107
423.108093,1332.370696,-7402.059420,-72625.853210
423.110637,-592.164754,5181.441594,-71859.757712
423.113181,-2516.700203,6661.853478,-72472.634111
423.115725,-1628.453072,3108.864956,-73391.948708
423.118270,-3849.070898,6661.853478,-74617.701505
423.120814,-1036.288319,1628.453072,-74617.701505
423.123358,-444.123565,2368.659014,-73238.729609
423.125902,148.041188,2960.823768,-72932.291410
423.128446,1628.453072,7402.059420,-71706.538613
423.130991,-444.123565,4441.235652,-71706.538613
423.133535,1924.535449,-5033.400406,-73698.386908
423.136079,11991.336260,4589.276840,-75230.577904
423.138623,5921.647536,-13323.706956,-74311.263306
423.141168,7550.100608,-12879.583391,-73238.729609
423.143712,9326.594869,-7402.059420,-71553.319513
423.146256,7105.977043,-1776.494261,-71553.319513
423.148800,7254.018232,-2812.782580,-72932.291410
423.151344,7550.100608,740.205942,-74004.825107
423.153889,1628.453072,-592.164754,-73698.386908
423.156433,296.082377,-11991.336260,-74004.825107
423.158977,1628.453072,1480.411884,-72012.976812
423.161521,6661.853478,-10214.842000,-73391.948708
423.164066,1628.453072,-1776.494261,-73391.948708
423.166610,6513.812290,5477.523971,-73391.948708
423.169154,7105.977043,-17024.736666,-72932.291410
423.171698,6513.812290,6365.771101,-73238.729609
423.174251,9770.718434,-2516.700203,-73238.729609
423.176803,7550.100608,-9770.718434,-72625.853210
423.179356,6513.812290,2516.700203,-72012.976812
423.181908,11251.130318,-14952.160028,-73698.386908
423.184460,6661.853478,-3404.947333,-74158.044206
423.187013,5921.647536,-8734.430116,-73391.948708
423.189565,3701.029710,-2072.576638,-72012.976812
423.192118,-5773.606348,16432.571912,-71553.319513
423.194670,-7105.977043,7698.141797,-73238.729609
423.197222,-4145.153275,-2368.659014,-73391.948708
423.199775,296.082377,1628.453072,-75077.358804
423.202327,2664.741391,4145.153275,-75537.016103
423.204880,0.000000,3404.947333,-74311.263306
423.207432,-296.082377,-3256.906145,-71553.319513
423.209984,2368.659014,7402.059420,-69867.909418
423.212537,-592.164754,9326.594869,-71859.757712
423.215089,-592.164754,6365.771101,-75230.577904
423.217642,2960.823768,-4885.359217,-76303.111601
423.220194,1036.288319,7254.018232,-74464.482406
423.222746,-296.082377,-1480.411884,-72779.072310
423.225299,-1628.453072,2516.700203,-72319.415011
423.227851,-2368.659014,6513.812290,-71400.100414
423.230404,-2960.823768,4441.235652,-74158.044206
423.232956,-3256.906145,4441.235652,-74924.139704
423.235509,-1036.288319,-2220.617826,-75230.577904
423.238061,-1332.370696,4441.235652,-73545.167808
423.240613,1628.453072,2368.659014,-72472.634111
423.243166,0.000000,8290.306550,-70327.566716
423.245718,-148.041188,2664.741391,-72012.976812
423.248271,5625.565159,-12731.542202,-73698.386908
423.250823,8734.430116,7846.182985,-75383.797003
423.253375,11399.171507,-18505.148550,-74158.044206
423.255928,10658.965565,-15544.324782,-72779.072310
423.258480,8142.265362,2812.782580,-70940.443115
423.261033,6217.729913,-3849.070898,-72012.976812
423.263585,8290.306550,1036.288319,-72932.291410
423.266137,3701.029710,-5181.441594,-74617.701505
423.268690,1628.453072,-2220.617826,-74924.139704
423.271242,6217.729913,-3256.906145,-71553.319513
423.273795,6217.729913,-5773.606348,-73085.510509
423.276324,9178.553681,-4293.194464,-72012.976812
423.278855,3997.112087,2072.576638,-73698.386908
423.281385,4885.359217,-2072.576638,-73851.606007
423.283915,7550.100608,-9770.718434,-73391.948708
423.286445,8586.388927,-3404.947333,-73851.606007
423.288975,8290.306550,-5181.441594,-72779.072310
423.291505,5625.565159,-2368.659014,-72012.976812
423.294035,6661.853478,-4441.235652,-72319.415011
423.296566,11399.171507,-8882.471304,-74158.044206
423.299096,7698.141797,-9178.553681,-74004.825107
423.301626,2812.782580,-5921.647536,-72472.634111
423.304156,-4441.235652,11991.336260,-72472.634111
423.306686,-4145.153275,10214.842000,-72625.853210
423.309216,-6957.935855,9326.594869,-72472.634111
423.311746,888.247130,-1480.411884,-73238.729609
423.314277,3256.906145,3256.906145,-76762.768900
423.316807,1184.329507,5773.606348,-75690.235202
423.319337,0.000000,-2072.576638,-72166.195912
423.321867,888.247130,3108.864956,-70021.128517
423.324397,148.041188,12731.542202,-70480.785816
423.326927,1924.535449,7698.141797,-73085.510509
423.329457,9178.553681,-2664.741391,-75077.358804
423.331988,-148.041188,-8882.471304,-75537.016103
423.334518,-888.247130,4885.359217,-72472.634111
423.337048,-148.041188,4589.276840,-71553.319513
423.339578,-1628.453072,-1924.535449,-72319.415011
423.342108,-7105.977043,14211.954086,-73085.510509
423.344638,1184.329507,-4441.235652,-75077.358804
423.347168,-2960.823768,6217.729913,-74924.139704
423.349699,1776.494261,1332.370696,-75230.577904
423.352229,888.247130,-1036.288319,-73391.948708
423.354759,-3256.906145,12879.583391,-70327.566716
423.357289,444.123565,888.247130,-70174.347617
423.359819,4885.359217,-12583.501014,-72779.072310
423.362349,8882.471304,7105.977043,-74924.139704
423.364879,11399.171507,-20281.642811,-75383.797003
423.367410,7994.224174,-10214.842000,-73238.729609
423.369940,8882.471304,-2812.782580,-71246.881314
423.372470,7254.018232,-4145.153275,-70940.443115
423.375000,7846.182985,444.123565,-71859.757712
423.377541,1480.411884,-4145.153275,-75077.358804
423.380082,4293.194464,-7698.141797,-74311.263306
423.382623,-888.247130,-10807.006753,-75230.577904
423.385164,5773.606348,5477.523971,-73698.386908
423.387706,7550.100608,-16136.489536,-72472.634111
423.390247,2812.782580,9918.759623,-71553.319513
423.392788,8290.306550,-2368.659014,-72779.072310
423.395329,8438.347739,-15692.365970,-74770.920605
423.397870,7698.141797,4293.194464,-73085.510509
423.400411,10066.800811,-9622.677246,-72779.072310
423.402952,5033.400406,-1480.411884,-71553.319513
423.405493,8142.265362,-4145.153275,-72012.976812
423.408035,10362.883188,-11547.212695,-73391.948708
423.410576,7105.977043,-1628.453072,-73698.386908
423.413117,4441.235652,-3552.988522,-73545.167808
423.415658,-4441.235652,14359.995275,-72779.072310
423.418199,-8290.306550,9918.759623,-72472.634111
423.420740,-10214.842000,296.082377,-73085.510509
423.423281,-888.247130,2072.576638,-74311.263306
423.425822,2664.741391,3404.947333,-76915.987999
423.428363,3108.864956,2368.659014,-75383.797003
423.430905,592.164754,1184.329507,-72472.634111
423.433446,1332.370696,4737.318029,-70174.347617
423.435987,-1480.411884,8142.265362,-70634.004916
423.438528,5033.400406,-3108.864956,-73085.510509
423.441069,296.082377,3108.864956,-75383.797003
423.443610,2368.659014,1480.411884,-75383.797003
423.446151,-1332.370696,2812.782580,-73698.386908
423.448692,-296.082377,1924.535449,-70940.443115
423.451234,-2220.617826,2812.782580,-71553.319513
423.453775,-2220.617826,2072.576638,-73085.510509
423.456316,-2072.576638,6217.729913,-74617.701505
423.458857,1628.453072,-3108.864956,-75230.577904
423.461398,592.164754,7698.141797,-74004.825107
423.463939,296.082377,3256.906145,-71859.757712
423.466480,-2664.741391,9178.553681,-71093.662214
423.469021,-1628.453072,-3256.906145,-71400.100414
423.471562,12731.542202,1628.453072,-73545.167808
423.474104,7550.100608,-10510.924376,-75996.673402
423.476645,7994.224174,-12731.542202,-75383.797003
423.479195,13027.624579,-9030.512492,-72012.976812
423.481746,8142.265362,-148.041188,-70940.443115
423.484296,3404.947333,-2220.617826,-71706.538613
423.486847,6069.688724,4145.153275,-72932.291410
423.489397,5477.523971,-11991.336260,-74617.701505
423.491947,-740.205942,-13175.665768,-74924.139704
423.494498,6217.729913,7105.977043,-73391.948708
423.497048,5625.565159,-8734.430116,-71706.538613
423.499599,2220.617826,6513.812290,-73851.606007
423.502149,5921.647536,-5625.565159,-73085.510509
423.504700,6069.688724,-6217.729913,-73851.606007
423.507250,10066.800811,-6069.688724,-73851.606007
423.509801,9770.718434,-7846.182985,-73391.948708
423.512351,4885.359217,-1184.329507,-71859.757712
423.514902,7402.059420,-5181.441594,-72012.976812
423.517452,8882.471304,-7698.141797,-72472.634111
423.520003,7550.100608,-5625.565159,-73545.167808
423.522553,3256.906145,-9622.677246,-74311.263306
423.525104,-1924.535449,11251.130318,-72779.072310
423.527654,-5329.482782,9474.636058,-72319.415011
423.530205,-9178.553681,9622.677246,-72319.415011
423.532755,-2072.576638,-148.041188,-73698.386908
423.535305,3552.988522,2664.741391,-75843.454302
423.537856,1332.370696,4145.153275,-76303.111601
423.540406,592.164754,-1036.288319,-73545.167808
423.542957,3256.906145,2368.659014,-70174.347617
423.545507,0.000000,11399.171507,-70021.128517
423.548058,3997.112087,4885.359217,-71093.662214
423.550608,2664.741391,-8290.306550,-75230.577904
423.553159,1184.329507,5329.482782,-75230.577904
423.555709,2368.659014,4737.318029,-73698.386908
423.558260,592.164754,-4589.276840,-71706.538613
423.560810,-4145.153275,11991.336260,-71553.319513
423.563361,-5033.400406,2664.741391,-72779.072310
423.565911,-3849.070898,6809.894666,-73698.386908
423.568462,888.247130,-4441.235652,-75843.454302
423.571012,3404.947333,-444.123565,-75383.797003
423.573562,-888.247130,9622.677246,-72166.195912
423.576113,-2516.700203,2516.700203,-69867.909418
423.578663,0.000000,-3404.947333,-70787.224015
423.581221,11103.089130,1480.411884,-73391.948708
423.583778,10955.047942,-13175.665768,-75077.358804
423.586336,7550.100608,-9178.553681,-75230.577904
423.588893,12879.583391,-13027.624579,-73085.510509
423.591451,7402.059420,-3701.029710,-71246.881314
423.594008,5625.565159,1036.288319,-70787.224015
423.596566,4145.153275,-444.123565,-73085.510509
423.599123,2368.659014,-7698.141797,-74770.920605
423.601681,2516.700203,-11547.212695,-73698.386908
423.604238,4885.359217,-3997.112087,-73545.167808
423.606795,7994.224174,1036.288319,-71706.538613
423.609353,5477.523971,-6069.688724,-73698.386908
423.611910,5181.441594,-8882.471304,-72472.634111
423.614468,8586.388927,592.164754,-72625.853210
423.617025,11251.130318,-10955.047942,-73851.606007
423.619583,6661.853478,-1184.329507,-73238.729609
423.622140,7254.018232,-2368.659014,-72779.072310
423.624698,8290.306550,-7846.182985,-71706.538613
423.627255,7994.224174,-2812.782580,-72472.634111
423.629813,6217.729913,-7698.141797,-73391.948708
423.632370,6365.771101,-1480.411884,-74311.263306
423.634927,-4589.276840,11695.253884,-73391.948708
423.637485,-7698.141797,7698.141797,-73085.510509
423.640042,-10066.800811,5033.400406,-71553.319513
423.642600,-1924.535449,-1776.494261,-73545.167808
423.645157,4293.194464,5773.606348,-74311.263306
423.647715,1036.288319,4441.235652,-76609.549800
423.650272,2368.659014,-4441.235652,-72625.853210
423.652830,1332.370696,5773.606348,-70174.347617
423.655387,592.164754,6661.853478,-70021.128517
423.657945,-2516.700203,-1184.329507,-72932.291410
423.660502,1480.411884,3108.864956,-74311.263306
423.663059,5625.565159,2960.823768,-75537.016103
423.665617,-148.041188,1628.453072,-74464.482406
423.668174,888.247130,-1332.370696,-72012.976812
423.670732,-5477.523971,5033.400406,-71400.100414
423.673289,-6661.853478,6809.894666,-73238.729609
423.675847,0.000000,-3404.947333,-74004.825107
423.678404,2072.576638,4737.318029,-75537.016103
423.680962,3997.112087,-592.164754,-75077.358804
423.683525,-1924.535449,9326.594869,-72319.415011
423.686089,-1776.494261,3108.864956,-70021.128517
423.688652,2960.823768,-10510.924376,-71553.319513
423.691216,3256.906145,-1036.288319,-74464.482406
423.693779,11399.171507,-15248.242405,-75996.673402
423.696343,13767.830521,-15248.242405,-75077.358804
423.698906,8882.471304,3404.947333,-72012.976812
423.701470,6069.688724,-3108.864956,-71400.100414
423.704033,3849.070898,1628.453072,-71553.319513
423.706597,1184.329507,-1184.329507,-73085.510509
423.709160,7698.141797,-3108.864956,-74464.482406
423.711724,5921.647536,-12583.501014,-74158.044206
423.714287,2812.782580,-2516.700203,-73851.606007
423.716851,1628.453072,1184.329507,-74158.044206
423.719414,3256.906145,-6809.894666,-72166.195912
423.721978,3552.988522,444.123565,-72166.195912
423.724541,14359.995275,-7846.182985,-73545.167808
423.727105,9474.636058,-7254.018232,-74464.482406
423.729668,3108.864956,-1776.494261,-73238.729609
423.732232,7846.182985,-6661.853478,-72472.634111
423.734795,7994.224174,-3552.988522,-72625.853210
423.737359,6809.894666,-5033.400406,-72625.853210
423.739922,5329.482782,-7550.100608,-73545.167808
423.742486,-3404.947333,11991.336260,-73545.167808
423.745049,-5329.482782,6069.688724,-73391.948708
423.747613,-7105.977043,9474.636058,-73085.510509
423.750176,-2516.700203,-296.082377,-73238.729609
423.752740,2220.617826,1332.370696,-74464.482406
423.755303,1332.370696,5773.606348,-75843.454302
423.757867,1332.370696,296.082377,-73851.606007
423.760430,2664.741391,-592.164754,-71246.881314
423.762994,3552.988522,8882.471304,-69408.252119
423.765557,4293.194464,3404.947333,-71246.881314
423.768121,-2664.741391,6217.729913,-74617.701505
423.770684,1036.288319,11843.295072,-76303.111601
423.773248,5625.565159,-1776.494261,-74004.825107
423.775811,-1480.411884,3404.947333,-71859.757712
423.778375,-6069.688724,1924.535449,-71859.757712
423.780938,-6365.771101,3552.988522,-72166.195912
423.783502,-3404.947333,6365.771101,-74770.920605
423.786070,3404.947333,-3552.988522,-75690.235202
423.788639,3108.864956,2812.782580,-75230.577904
423.791207,-888.247130,7698.141797,-72779.072310
423.793776,-1480.411884,296.082377,-70480.785816
423.796345,5477.523971,-5033.400406,-71093.662214
423.798913,4885.359217,-6217.729913,-73085.510509
423.801482,10658.965565,-11547.212695,-74158.044206
423.804050,13027.624579,-15544.324782,-74464.482406
423.806619,11547.212695,-740.205942,-72932.291410
423.809188,6957.935855,2368.659014,-71400.100414
423.811756,5773.606348,-1036.288319,-71859.757712
423.814325,-1628.453072,-3108.864956,-72932.291410
423.816893,1480.411884,-8142.265362,-74924.139704
423.819462,6809.894666,-3997.112087,-74158.044206
423.822031,5181.441594,-3997.112087,-73851.606007
423.824599,2960.823768,888.247130,-73851.606007
423.827168,5181.441594,-2072.576638,-72319.415011
423.829736,5921.647536,-8734.430116,-73085.510509
423.832305,10955.047942,-4737.318029,-73698.386908
423.834874,9770.718434,-5625.565159,-74158.044206
423.837442,7550.100608,-4293.194464,-72625.853210
423.840011,9622.677246,-9178.553681,-71553.319513
423.842579,6513.812290,1184.329507,-71706.538613
423.845148,6069.688724,-7698.141797,-71859.757712
423.847717,4293.194464,-1480.411884,-74004.825107
423.850285,-3701.029710,10955.047942,-74464.482406
423.852854,-6069.688724,9474.636058,-74464.482406
423.855422,-9326.594869,888.247130,-73085.510509
423.857991,-2516.700203,-1332.370696,-74004.825107
423.860560,1480.411884,6809.894666,-75077.358804
423.863128,1628.453072,3108.864956,-75383.797003
423.865697,2220.617826,-2664.741391,-72932.291410
423.868265,2664.741391,9326.594869,-71400.100414
423.870834,5773.606348,4885.359217,-68795.375720
423.873403,-2664.741391,-3552.988522,-72779.072310
423.875971,-5773.606348,10658.965565,-75230.577904
423.878540,5921.647536,-1628.453072,-75077.358804
423.881108,2812.782580,1776.494261,-73238.729609
423.883677,-3256.906145,7846.182985,-72012.976812
423.886246,-3997.112087,296.082377,-71246.881314
423.888818,-7105.977043,8882.471304,-72932.291410
423.891390,1332.370696,-888.247130,-74464.482406
423.893962,3256.906145,2072.576638,-75537.016103
423.896534,1036.288319,8438.347739,-73698.386908
423.899106,-2220.617826,-296.082377,-71553.319513
423.901679,-296.082377,-3108.864956,-70327.566716
423.904251,6661.853478,1184.329507,-72779.072310
423.906823,10807.006753,-13323.706956,-73085.510509
423.909395,11103.089130,-9770.718434,-74770.920605
423.911967,12879.583391,-3997.112087,-74004.825107
423.914540,7254.018232,-5329.482782,-72166.195912
423.917112,4293.194464,5921.647536,-71246.881314
423.919684,3108.864956,-2812.782580,-72166.195912
423.922256,3256.906145,-6809.894666,-72932.291410
423.924828,-1628.453072,-4293.194464,-75996.673402
423.927401,7254.018232,-5329.482782,-74158.044206
423.929973,5921.647536,-6513.812290,-72779.072310
423.932545,3552.988522,6217.729913,-72779.072310
423.935117,8882.471304,-8734.430116,-72012.976812
423.937689,6365.771101,-6809.894666,-73391.948708
423.940262,11251.130318,-1332.370696,-74158.044206
423.942834,10955.047942,-13323.706956,-74158.044206
423.945406,6957.935855,-148.041188,-72166.195912
423.947978,11103.089130,-9622.677246,-72012.976812
423.950550,5477.523971,-6957.935855,-71093.662214
423.953123,3256.906145,-148.041188,-72779.072310
423.955695,-3108.864956,10214.842000,-74158.044206
423.958267,-4293.194464,6957.935855,-74770.920605
423.960839,-9030.512492,8290.306550,-74311.263306
423.963411,-4441.235652,-1628.453072,-74004.825107
423.965984,592.164754,0.000000,-73698.386908
423.968556,888.247130,6809.894666,-74311.263306
423.971128,1924.535449,1480.411884,-72472.634111
423.973700,2220.617826,2368.659014,-72012.976812
423.976272,3256.906145,11695.253884,-70174.347617
423.978845,888.247130,-6069.688724,-72319.415011
423.981417,-3552.988522,5181.441594,-75077.358804
423.983989,3552.988522,2368.659014,-74004.825107
423.986561,1332.370696,2516.700203,-73851.606007
423.989133,-3108.864956,5625.565159,-72319.415011
423.991709,-7105.977043,5477.523971,-72166.195912
423.994284,-5329.482782,3997.112087,-73238.729609
423.996859,-1184.329507,-888.247130,-74311.263306
423.999435,1924.535449,4145.153275,-75996.673402
424.002010,1036.288319,4441.235652,-74924.139704
424.004585,-1776.494261,2516.700203,-72319.415011
424.007161,888.247130,-5625.565159,-70787.224015
424.009736,4441.235652,2812.782580,-71859.757712
424.012311,12287.418637,-17616.901420,-73698.386908
424.014886,10510.924376,-12583.501014,-74311.263306
424.017462,13175.665768,-444.123565,-73545.167808
424.020037,8438.347739,-7846.182985,-72625.853210
424.022612,5033.400406,5773.606348,-71859.757712
424.025188,2664.741391,-4441.235652,-73085.510509
424.027763,-148.041188,-6809.894666,-73698.386908
424.030338,2368.659014,-4441.235652,-74311.263306
424.032914,5033.400406,-5181.441594,-73851.606007
424.035489,4885.359217,2220.617826,-74004.825107
424.038064,4885.359217,-5921.647536,-72166.195912
424.040640,4145.153275,444.123565,-73085.510509
424.043215,9918.759623,-9030.512492,-74004.825107
424.045790,8290.306550,-7698.141797,-73851.606007
424.048365,11843.295072,-3849.070898,-73545.167808
424.050941,10066.800811,-9326.594869,-72625.853210
424.053516,7254.018232,-148.041188,-70940.443115
424.056091,5921.647536,-4885.359217,-71246.881314
424.058667,5033.400406,1776.494261,-73238.729609
424.061242,-6069.688724,10362.883188,-73851.606007
424.063817,-6513.812290,5921.647536,-74311.263306
424.066393,-6809.894666,6957.935855,-74464.482406
424.068968,-4885.359217,-3701.029710,-73085.510509
424.071543,1184.329507,4293.194464,-74464.482406
424.074121,1924.535449,5477.523971,-74617.701505
424.076700,2072.576638,444.123565,-73238.729609
424.079278,1332.370696,592.164754,-72319.415011
424.081856,3256.906145,2072.576638,-70021.128517
424.084435,-2960.823768,2220.617826,-72932.291410
424.087013,-5181.441594,-148.041188,-73851.606007
424.089591,1036.288319,5181.441594,-75383.797003
424.092169,1924.535449,3256.906145,-74464.482406
424.094748,-2368.659014,1628.453072,-72166.195912
424.097326,-5921.647536,4885.359217,-72319.415011
424.099904,-6365.771101,3552.988522,-73391.948708
424.102482,-1924.535449,-444.123565,-75077.358804
424.105061,3404.947333,3849.070898,-75077.358804
424.107639,1036.288319,8142.265362,-73085.510509
424.110217,592.164754,-2516.700203,-71859.757712
424.112795,5329.482782,-2220.617826,-72012.976812
424.115374,5181.441594,-6217.729913,-72012.976812
424.117952,11103.089130,-13619.789333,-73545.167808
424.120530,13915.871710,-14508.036463,-73238.729609
424.123108,11991.336260,444.123565,-73545.167808
424.125687,6957.935855,-3701.029710,-72166.195912
424.128265,3997.112087,2664.741391,-71859.757712
424.130843,-592.164754,-1480.411884,-73391.948708
424.133422,5921.647536,-10362.883188,-73238.729609
424.136000,444.123565,-16876.695478,-73085.510509
424.138578,0.000000,8290.306550,-73851.606007
424.141156,7402.059420,-14656.077652,-73851.606007
424.143735,2368.659014,-888.247130,-72472.634111
424.146313,9918.759623,5181.441594,-72932.291410
424.148891,13619.789333,-20429.683999,-73698.386908
424.151469,8290.306550,-10362.883188,-73085.510509
424.154048,6365.771101,2220.617826,-73391.948708
424.156626,14063.912898,-16284.530724,-71553.319513
424.159204,2812.782580,4885.359217,-70787.224015
424.161782,3256.906145,-10362.883188,-72932.291410
424.164361,-2072.576638,13175.665768,-74004.825107
424.166939,-6661.853478,3701.029710,-73698.386908
424.169517,-9030.512492,8586.388927,-75230.577904
424.172095,-2220.617826,-1332.370696,-74004.825107
424.174674,-2960.823768,1924.535449,-75077.358804
424.177253,1776.494261,5477.523971,-74158.044206
424.179833,3701.029710,1776.494261,-72932.291410
424.182412,2516.700203,-592.164754,-71706.538613
424.184992,5033.400406,4145.153275,-69408.252119
424.187572,-1480.411884,148.041188,-73391.948708
424.190151,-4589.276840,11695.253884,-74158.044206
424.192731,2960.823768,148.041188,-75077.358804
424.195310,2812.782580,5773.606348,-73238.729609
424.197890,-1924.535449,3997.112087,-72012.976812
424.200470,-5181.441594,2220.617826,-71706.538613
424.203049,-9474.636058,9622.677246,-73545.167808
424.205629,-444.123565,-5329.482782,-74924.139704
424.208208,2664.741391,4589.276840,-74770.920605
424.210788,0.000000,9474.636058,-73545.167808
424.213368,296.082377,-1480.411884,-71859.757712
424.215947,3256.906145,-5921.647536,-71859.757712
424.218527,4293.194464,-1480.411884,-72166.195912
424.221106,10955.047942,-15396.283594,-72932.291410
424.223686,14359.995275,-13471.748144,-73391.948708
424.226266,14359.995275,-1036.288319,-72472.634111
424.228845,6513.812290,-3108.864956,-73238.729609
424.231425,2812.782580,4441.235652,-72932.291410
424.234004,888.247130,-1776.494261,-72779.072310
424.236584,2516.700203,-7254.018232,-74770.920605
424.239163,6217.729913,-1628.453072,-73851.606007
424.241743,8438.347739,-11843.295072,-73391.948708
424.244323,3997.112087,2516.700203,-72779.072310
424.246902,5477.523971,1480.411884,-72166.195912
424.249482,9178.553681,-15396.283594,-73238.729609
424.252061,8438.347739,296.082377,-73545.167808
424.254641,12583.501014,-8882.471304,-74924.139704
424.257221,7994.224174,-12287.418637,-73545.167808
424.259800,10362.883188,1776.494261,-71246.881314
424.262380,7846.182985,-10658.965565,-70634.004916
424.264959,1924.535449,6513.812290,-72319.415011
424.267539,-2812.782580,2812.782580,-74311.263306
424.270119,-5477.523971,7402.059420,-74617.701505
424.272698,-11547.212695,8734.430116,-74004.825107
424.275278,-3256.906145,-5477.523971,-74004.825107
424.277857,-296.082377,7550.100608,-73698.386908
424.280437,2812.782580,3552.988522,-74464.482406
424.283018,2812.782580,888.247130,-72932.291410
424.285599,3997.112087,2072.576638,-70327.566716
424.288180,-1924.535449,-740.205942,-72319.415011
424.290761,-3404.947333,10066.800811,-72472.634111
424.293341,2960.823768,-3404.947333,-73545.167808
424.295922,1184.329507,8734.430116,-74464.482406
424.298503,592.164754,7550.100608,-73851.606007
424.301084,-2368.659014,-4293.194464,-73851.606007
424.303665,-7402.059420,10510.924376,-72166.195912
424.306246,-1924.535449,-740.205942,-73085.510509
424.308827,-2072.576638,888.247130,-73698.386908
424.311408,0.000000,13471.748144,-74004.825107
424.313988,-592.164754,1776.494261,-73851.606007
424.316569,0.000000,1036.288319,-72166.195912
424.319150,8586.388927,-2664.741391,-72166.195912
424.321731,4145.153275,-11843.295072,-72472.634111
424.324312,10658.965565,-10807.006753,-72932.291410
424.326893,15100.201217,-13323.706956,-73238.729609
424.329474,11103.089130,-3849.070898,-73238.729609
424.332054,6809.894666,1480.411884,-73545.167808
424.334635,1776.494261,740.205942,-72472.634111
424.337216,3404.947333,-1184.329507,-72779.072310
424.339797,6661.853478,-16136.489536,-74924.139704
424.342378,740.205942,444.123565,-73238.729609
424.344959,7402.059420,-5033.400406,-72932.291410
424.347540,3108.864956,-7994.224174,-72472.634111
424.350120,888.247130,2516.700203,-73238.729609
424.352701,10510.924376,-9178.553681,-74464.482406
424.355282,11695.253884,-11695.253884,-74158.044206
424.357863,12583.501014,1628.453072,-73085.510509
424.360444,9178.553681,-16876.695478,-72319.415011
424.363025,7402.059420,1924.535449,-71246.881314
424.365606,4885.359217,-5181.441594,-70940.443115
424.368186,3997.112087,3552.988522,-72779.072310
424.370767,-5773.606348,9178.553681,-74311.263306
424.373348,-8290.306550,9178.553681,-74464.482406
424.375929,-6069.688724,-148.041188,-74158.044206
424.378510,-3997.112087,1776.494261,-74770.920605
424.381091,888.247130,2072.576638,-74311.263306
424.383643,2812.782580,6069.688724,-73545.167808
424.386196,4589.276840,1036.288319,-71859.757712
424.388749,592.164754,0.000000,-72166.195912
424.391301,-1184.329507,2960.823768,-72012.976812
424.393854,2664.741391,10214.842000,-73085.510509
424.396406,1036.288319,-1036.288319,-74770.920605
424.398959,-296.082377,11991.336260,-74464.482406
424.401512,-148.041188,-2516.700203,-74004.825107
424.404064,-5181.441594,5329.482782,-72012.976812
424.406617,-6809.894666,5181.441594,-72472.634111
424.409170,-1332.370696,-3404.947333,-74770.920605
424.411722,-592.164754,5625.565159,-74464.482406
424.414275,1332.370696,7698.141797,-73391.948708
424.416827,-740.205942,444.123565,-72166.195912
424.419380,3701.029710,-7550.100608,-72779.072310
424.421933,3404.947333,148.041188,-72625.853210
424.424485,11103.089130,-14804.118840,-71859.757712
424.427038,13619.789333,-17468.860231,-73391.948708
424.429590,14063.912898,740.205942,-72472.634111
424.432143,7402.059420,-2220.617826,-72779.072310
424.434696,1480.411884,1628.453072,-72779.072310
424.437248,1036.288319,-1628.453072,-72932.291410
424.439801,296.082377,-3108.864956,-75843.454302
424.442354,7402.059420,-6069.688724,-74311.263306
424.444906,7994.224174,-4293.194464,-72779.072310
424.447459,5477.523971,-5477.523971,-71246.881314
424.450011,4145.153275,-2960.823768,-71246.881314
424.452564,7846.182985,-2812.782580,-73545.167808
424.455117,12287.418637,-6957.935855,-74464.482406
424.457669,12139.377449,-9622.677246,-75383.797003
424.460222,9178.553681,-5477.523971,-73391.948708
424.462774,9770.718434,-7105.977043,-70787.224015
424.465327,5477.523971,-1184.329507,-69867.909418
424.467880,3404.947333,1184.329507,-72166.195912
424.470432,-5181.441594,12879.583391,-74464.482406
424.472985,-7994.224174,4441.235652,-75383.797003
424.475537,-5477.523971,888.247130,-74617.701505
424.478090,-2812.782580,2516.700203,-74158.044206
424.480643,-1924.535449,2368.659014,-74464.482406
424.483195,2960.823768,4293.194464,-73698.386908
424.485754,3552.988522,2812.782580,-71246.881314
424.488312,3256.906145,6809.894666,-70787.224015
424.490871,6809.894666,4737.318029,-71859.757712
424.493429,-3701.029710,-9918.759623,-74464.482406
424.495987,-2812.782580,15396.283594,-73391.948708
424.498546,2812.782580,-148.041188,-73391.948708
424.501104,-1036.288319,5921.647536,-72779.072310
424.503662,-2812.782580,3108.864956,-73085.510509
424.506221,-5773.606348,444.123565,-73238.729609
424.508779,-3552.988522,4145.153275,-73851.606007
424.511338,1184.329507,1332.370696,-75537.016103
424.513896,-2368.659014,9918.759623,-73851.606007
424.516454,-2220.617826,296.082377,-72932.291410
424.519013,6809.894666,-9918.759623,-72625.853210
424.521571,4885.359217,3108.864956,-72779.072310
424.524130,11399.171507,-23094.425390,-72779.072310
424.526688,11843.295072,-9474.636058,-72932.291410
424.529246,11991.336260,6217.729913,-71859.757712
424.531805,7402.059420,-8586.388927,-72319.415011
424.534363,2960.823768,8290.306550,-73238.729609
424.536922,1036.288319,-7846.182985,-74617.701505
424.539480,6809.894666,-6365.771101,-75537.016103
424.542038,3701.029710,-4441.235652,-73698.386908
424.544597,5773.606348,-5329.482782,-72932.291410
424.547155,2664.741391,-1332.370696,-70787.224015
424.549713,1480.411884,-592.164754,-72472.634111
424.552272,11547.212695,-10214.842000,-74158.044206
424.554830,11695.253884,-5033.400406,-74770.920605
424.557389,12731.542202,-6513.812290,-74311.263306
424.559947,9326.594869,-12731.542202,-72932.291410
424.562505,6957.935855,740.205942,-70787.224015
424.565064,5329.482782,-5033.400406,-69561.471218
424.567622,-148.041188,13767.830521,-73238.729609
424.570181,-5477.523971,4293.194464,-74311.263306
424.572739,-9474.636058,10658.965565,-75383.797003
424.575297,-5477.523971,3552.988522,-74617.701505
424.577856,-2664.741391,-888.247130,-75077.358804
424.580414,1924.535449,3404.947333,-74158.044206
424.582973,1776.494261,3701.029710,-73391.948708
424.585531,2220.617826,1776.494261,-70480.785816
424.588094,4885.359217,4441.235652,-70634.004916
424.590658,2072.576638,-3108.864956,-71859.757712
424.593221,-5033.400406,8142.265362,-75383.797003
424.595784,2960.823768,-148.041188,-73851.606007
424.598348,-592.164754,7254.018232,-74311.263306
424.600911,-2368.659014,6809.894666,-73085.510509
424.603475,-3701.029710,-1776.494261,-72625.853210
424.606038,-7846.182985,9030.512492,-72932.291410
424.608601,148.041188,4145.153275,-74004.825107
424.611165,1036.288319,2812.782580,-74464.482406
424.613728,-3256.906145,9770.718434,-73085.510509
424.616291,-1184.329507,-10658.965565,-73238.729609
424.618855,11991.336260,9622.677246,-71859.757712
424.621418,11103.089130,-18801.230927,-72779.072310
424.623981,9918.759623,-11103.089130,-72779.072310
424.626545,13175.665768,-10955.047942,-72319.415011
424.629108,7105.977043,-5477.523971,-72472.634111
424.631672,3108.864956,4589.276840,-72779.072310
424.634235,-148.041188,-1480.411884,-73698.386908
424.636798,6217.729913,-4737.318029,-73545.167808
424.639362,6365.771101,-8290.306550,-76303.111601
424.641925,5921.647536,-4737.318029,-74464.482406
424.644488,2812.782580,-5773.606348,-71553.319513
424.647052,3256.906145,-1480.411884,-71093.662214
424.649615,7254.018232,-4589.276840,-72472.634111
424.652178,12435.459826,-2072.576638,-74158.044206
424.654742,12879.583391,-10510.924376,-75690.235202
424.657305,12287.418637,-7254.018232,-74004.825107
424.659869,8438.347739,-8586.388927,-71246.881314
424.662432,3849.070898,-888.247130,-69408.252119
424.664995,3404.947333,-1184.329507,-70940.443115
424.667559,-4293.194464,17912.983796,-74158.044206
424.670122,-7402.059420,4589.276840,-75690.235202
424.672685,-8142.265362,2516.700203,-75690.235202
424.675249,-3849.070898,2516.700203,-75383.797003
424.677812,-1480.411884,-592.164754,-74924.139704
424.680375,1332.370696,7698.141797,-73545.167808
424.682939,3849.070898,-2664.741391,-71246.881314
424.685502,2368.659014,7402.059420,-69561.471218
424.688066,6069.688724,8438.347739,-72166.195912
424.690633,1924.535449,-15692.365970,-73545.167808
424.693201,-2072.576638,18653.189738,-73698.386908
424.695768,740.205942,-148.041188,-74464.482406
424.698336,-2072.576638,7994.224174,-73085.510509
424.700904,-4441.235652,4441.235652,-72472.634111
424.703471,-3404.947333,-2812.782580,-73085.510509
424.706039,-3997.112087,4441.235652,-74158.044206
424.708606,-740.205942,9030.512492,-74464.482406
424.711174,-2072.576638,5181.441594,-73545.167808
424.713742,-2220.617826,-2516.700203,-72472.634111
424.716309,14063.912898,-888.247130,-72779.072310
424.718877,5181.441594,-11695.253884,-72779.072310
424.721444,9474.636058,-11547.212695,-72472.634111
424.724012,15100.201217,-18357.107362,-71859.757712
424.726580,13323.706956,5329.482782,-72012.976812
424.729147,4589.276840,-1776.494261,-72779.072310
424.731715,592.164754,5033.400406,-73698.386908
424.734282,-740.205942,-6809.894666,-76303.111601
424.736850,6661.853478,-3404.947333,-75843.454302
424.739418,3552.988522,-11251.130318,-74158.044206
424.741985,-296.082377,1332.370696,-72166.195912
424.744553,7105.977043,-8142.265362,-71093.662214
424.747120,7550.100608,-13471.748144,-72012.976812
424.749688,8142.265362,5033.400406,-75077.358804
424.752256,17764.942608,-19541.436869,-75690.235202
424.754823,8142.265362,-3108.864956,-74617.701505
424.757391,9622.677246,-5921.647536,-71553.319513
424.759958,4737.318029,-3997.112087,-69714.690318
424.762526,3108.864956,296.082377,-70480.785816
424.765094,-6365.771101,18801.230927,-73238.729609
424.767661,-9474.636058,3849.070898,-75537.016103
424.770229,-7550.100608,1480.411884,-75996.673402
424.772796,-4145.153275,3404.947333,-75230.577904
424.775364,-148.041188,-2812.782580,-74924.139704
424.777932,1776.494261,8438.347739,-73391.948708
424.780499,4589.276840,-1036.288319,-70940.443115
424.783067,0.000000,1776.494261,-70174.347617
424.785634,-148.041188,3404.947333,-70940.443115
424.788202,-592.164754,6957.935855,-75230.577904
424.790770,2220.617826,-148.041188,-75537.016103
424.793340,-296.082377,7254.018232,-74004.825107
424.795910,-1924.535449,5921.647536,-72472.634111
424.798481,-4589.276840,1184.329507,-72012.976812
424.801051,-6365.771101,3404.947333,-73851.606007
424.803621,740.205942,-1036.288319,-74617.701505
424.806191,-740.205942,10066.800811,-74617.701505
424.808762,-4145.153275,6069.688724,-73851.606007
424.811332,-592.164754,-11991.336260,-72166.195912
424.813902,12731.542202,11695.253884,-72012.976812
424.816473,12731.542202,-23390.507767,-73238.729609
424.819043,10214.842000,-9030.512492,-71859.757712
424.821613,14952.160028,-13619.789333,-72472.634111
424.824183,10362.883188,-1184.329507,-71553.319513
424.826754,1924.535449,6365.771101,-72012.976812
424.829324,740.205942,-1332.370696,-74004.825107
424.831894,1480.411884,-592.164754,-75843.454302
424.834465,8142.265362,-7402.059420,-76456.330700
424.837035,5921.647536,-5773.606348,-73698.386908
424.839605,2664.741391,-6661.853478,-70940.443115
424.842176,2960.823768,-2812.782580,-71706.538613
424.844746,7698.141797,-3552.988522,-71859.757712
424.847316,11991.336260,-5921.647536,-75077.358804
424.849886,14359.995275,-9030.512492,-75077.358804
424.852457,11547.212695,-8734.430116,-74158.044206
424.855027,4737.318029,-7254.018232,-71859.757712
424.857597,2516.700203,444.123565,-69408.252119
424.860168,4145.153275,3849.070898,-70634.004916
424.862738,-6513.812290,17024.736666,-74004.825107
424.865308,-10510.924376,2664.741391,-75537.016103
424.867878,-3997.112087,0.000000,-75383.797003
424.870449,-2664.741391,8586.388927,-75537.016103
424.873019,3256.906145,-3108.864956,-74617.701505
424.875589,3256.906145,8142.265362,-73238.729609
424.878160,1628.453072,-888.247130,-71400.100414
424.880730,-444.123565,-4441.235652,-69101.813920
424.883300,-148.041188,16136.489536,-71093.662214
424.885871,7402.059420,-5625.565159,-75077.358804
424.888441,296.082377,296.082377,-75996.673402
424.891011,-296.082377,12583.501014,-72625.853210
424.893581,-2072.576638,-2072.576638,-72166.195912
424.896154,-8290.306550,4885.359217,-71400.100414
424.898727,-3701.029710,-592.164754,-74770.920605
424.901300,1776.494261,1036.288319,-75690.235202
424.903873,-2516.700203,13915.871710,-73851.606007
424.906446,148.041188,-6217.729913,-72319.415011
424.909019,5773.606348,-12287.418637,-73545.167808
424.911591,-444.123565,2812.782580,-73238.729609
424.914164,14359.995275,-19985.560434,-73238.729609
424.916737,17912.983796,-16284.530724,-72166.195912
424.919310,14656.077652,6069.688724,-70634.004916
424.921883,5181.441594,-7105.977043,-71706.538613
424.924456,-1628.453072,7846.182985,-72166.195912
424.927029,444.123565,-8734.430116,-75537.016103
424.929601,7994.224174,-1480.411884,-76456.330700
424.932174,2960.823768,-7254.018232,-75077.358804
424.934747,2220.617826,-3849.070898,-72472.634111
424.937320,6069.688724,-5181.441594,-70327.566716
424.939893,5033.400406,-3256.906145,-71093.662214
424.942466,9918.759623,-3108.864956,-73238.729609
424.945038,12731.542202,-9030.512492,-75077.358804
424.947611,10955.047942,-4589.276840,-75077.358804
424.950184,8882.471304,-9178.553681,-72625.853210
424.952757,3108.864956,444.123565,-70480.785816
424.955330,2960.823768,740.205942,-69714.690318
424.957903,-6809.894666,17468.860231,-73238.729609
424.960476,-9918.759623,3701.029710,-75383.797003
424.963048,-8290.306550,-296.082377,-75383.797003
424.965621,-3552.988522,6661.853478,-75996.673402
424.968194,444.123565,-2220.617826,-75690.235202
424.970767,4145.153275,5773.606348,-73085.510509
424.973340,1924.535449,6809.894666,-70327.566716
424.975913,740.205942,3552.988522,-68335.718422
424.978486,3108.864956,-3552.988522,-70174.347617
424.981058,-740.205942,7254.018232,-75077.358804
424.983631,5477.523971,740.205942,-75383.797003
424.986204,1480.411884,3849.070898,-74004.825107
424.988777,-3997.112087,6661.853478,-71859.757712
424.991350,-5921.647536,-148.041188,-71706.538613
424.993923,-7994.224174,-296.082377,-73238.729609
424.996496,-296.082377,4293.194464,-75230.577904
424.999041,1628.453072,8290.306550,-75077.358804
425.001587,-2368.659014,3997.112087,-73391.948708
425.004133,3404.947333,-17320.819043,-72166.195912
425.006678,1628.453072,5033.400406,-73698.386908
425.009224,13471.748144,-16136.489536,-72472.634111
425.011770,16876.695478,-21465.972318,-73085.510509
425.014316,15248.242405,10066.800811,-71093.662214
425.016861,5921.647536,-9918.759623,-71553.319513
425.019407,-444.123565,9918.759623,-72319.415011
425.021953,740.205942,-3849.070898,-74924.139704
425.024498,8438.347739,-11695.253884,-76303.111601
425.027044,5477.523971,-6957.935855,-76609.549800
425.029590,2960.823768,-6513.812290,-72012.976812
425.032136,3108.864956,-5773.606348,-70480.785816
425.034681,3256.906145,-2664.741391,-71246.881314
425.037227,8438.347739,-4293.194464,-73545.167808
425.039773,17764.942608,-8734.430116,-74924.139704
425.042318,12879.583391,-7105.977043,-74311.263306
425.044864,11399.171507,-8142.265362,-72779.072310
425.047410,3256.906145,-2516.700203,-70327.566716
425.049956,1924.535449,7402.059420,-70021.128517
425.052501,-5773.606348,14508.036463,-73085.510509
425.055047,-10658.965565,4589.276840,-75077.358804
425.057593,-8586.388927,296.082377,-76456.330700
425.060138,-1184.329507,1924.535449,-75843.454302
425.062684,-2220.617826,1480.411884,-75996.673402
425.065230,2368.659014,7846.182985,-73238.729609
425.067775,2220.617826,-888.247130,-70787.224015
425.070321,1184.329507,296.082377,-68029.280222
425.072867,-1480.411884,7846.182985,-70634.004916
425.075413,4145.153275,-592.164754,-74311.263306
425.077958,3108.864956,7698.141797,-76149.892501
425.080504,148.041188,7994.224174,-75077.358804
425.083050,-3108.864956,1776.494261,-72625.853210
425.085595,-7550.100608,1776.494261,-71706.538613
425.088141,-3108.864956,2516.700203,-73851.606007
425.090687,2072.576638,1776.494261,-74924.139704
425.093233,-4737.318029,15840.407159,-75230.577904
425.095778,1036.288319,-7105.977043,-73085.510509
425.098324,5773.606348,-13915.871710,-72472.634111
425.100877,2960.823768,8586.388927,-72932.291410
425.103430,13767.830521,-23538.548956,-72472.634111
425.105982,16580.613101,-17468.860231,-72166.195912
425.108535,15100.201217,6809.894666,-71553.319513
425.111088,4441.235652,-6809.894666,-70940.443115
425.113641,1332.370696,6809.894666,-72472.634111
425.116193,2960.823768,-13175.665768,-74617.701505
425.118746,4885.359217,-10362.883188,-76303.111601
425.121299,2812.782580,9474.636058,-76915.987999
425.123852,5033.400406,-20873.807564,-72166.195912
425.126404,4441.235652,-16580.613101,-69408.252119
425.128957,5625.565159,12287.418637,-71400.100414
425.131510,14508.036463,-15692.365970,-74158.044206
425.134063,12583.501014,-4589.276840,-75230.577904
425.136615,13767.830521,-5033.400406,-74464.482406
425.139168,6957.935855,-14952.160028,-72932.291410
425.141721,1924.535449,3404.947333,-70480.785816
425.144274,-2664.741391,10658.965565,-70787.224015
425.146826,-6809.894666,10807.006753,-73391.948708
425.149379,-13471.748144,5773.606348,-75690.235202
425.151932,-2960.823768,888.247130,-75843.454302
425.154485,-1036.288319,6809.894666,-76762.768900
425.157037,5181.441594,-1776.494261,-75230.577904
425.159590,2072.576638,6365.771101,-73085.510509
425.162143,-296.082377,1776.494261,-70174.347617
425.164696,-2960.823768,-4145.153275,-69408.252119
425.167248,3108.864956,12731.542202,-71859.757712
425.169801,3256.906145,-740.205942,-76762.768900
425.172354,2220.617826,9178.553681,-74924.139704
425.174907,-3552.988522,1776.494261,-74464.482406
425.177459,-6809.894666,6069.688724,-71553.319513
425.180012,-5477.523971,3404.947333,-71400.100414
425.182565,-148.041188,-4589.276840,-74158.044206
425.185118,0.000000,15248.242405,-75537.016103
425.187671,-1480.411884,-296.082377,-74617.701505
425.190223,-888.247130,-11251.130318,-71553.319513
425.192776,12287.418637,14952.160028,-72166.195912
425.195329,15100.201217,-25611.125593,-72166.195912
425.197882,9326.594869,-9178.553681,-72779.072310
425.200434,15840.407159,-14804.118840,-72625.853210
425.202992,6957.935855,-9326.594869,-71093.662214
425.205551,444.123565,7550.100608,-71553.319513
425.208109,2960.823768,296.082377,-73698.386908
425.210667,4145.153275,-10658.965565,-77069.207099
425.213225,6365.771101,-4885.359217,-76762.768900
425.215783,1628.453072,-2368.659014,-74617.701505
425.218341,3997.112087,-13915.871710,-71246.881314
425.220899,6365.771101,-1480.411884,-70480.785816
425.223458,8586.388927,-1628.453072,-72625.853210
425.226016,15544.324782,-11103.089130,-74158.044206
425.228574,12139.377449,-6957.935855,-74770.920605
425.231132,10955.047942,-6661.853478,-73085.510509
425.233690,3997.112087,-2516.700203,-72166.195912
425.236248,3404.947333,4441.235652,-70174.347617
425.238806,-7105.977043,17172.777854,-71859.757712
425.241365,-10955.047942,6957.935855,-74004.825107
425.243923,-3404.947333,-1776.494261,-76149.892501
425.246481,-740.205942,5477.523971,-76609.549800
425.249039,1184.329507,-2516.700203,-76303.111601
425.251597,2516.700203,6365.771101,-73391.948708
425.254155,2516.700203,4885.359217,-68795.375720
425.256714,-1480.411884,4145.153275,-68488.937521
425.259272,592.164754,2072.576638,-70021.128517
425.261830,740.205942,2072.576638,-75383.797003
425.264388,5625.565159,6809.894666,-76456.330700
425.266946,-2072.576638,4441.235652,-73851.606007
425.269504,-8586.388927,5181.441594,-71859.757712
425.272062,-4885.359217,3404.947333,-71400.100414
425.274621,-2368.659014,-740.205942,-73851.606007
425.277179,-1480.411884,8142.265362,-75230.577904
425.279737,-3108.864956,7254.018232,-74924.139704
425.282295,-1628.453072,-6069.688724,-74004.825107
425.284853,11991.336260,10658.965565,-72625.853210
425.287411,14063.912898,-20133.601622,-72319.415011
425.289969,10658.965565,-12139.377449,-72319.415011
425.292528,14063.912898,-14359.995275,-72012.976812
425.295086,8734.430116,740.205942,-72012.976812
425.297644,592.164754,-2072.576638,-71400.100414
425.300202,3404.947333,3552.988522,-72932.291410
425.302760,444.123565,-444.123565,-76609.549800
425.305323,8290.306550,-1776.494261,-76609.549800
425.307886,8142.265362,-15840.407159,-72625.853210
425.310448,888.247130,-296.082377,-71553.319513
425.313011,9474.636058,-7550.100608,-71246.881314
425.315574,7846.182985,-9474.636058,-71400.100414
425.318137,9622.677246,-444.123565,-73085.510509
425.320699,14656.077652,-15100.201217,-75843.454302
425.323262,9918.759623,-1036.288319,-73391.948708
425.325825,5477.523971,3256.906145,-70940.443115
425.328388,3997.112087,-1184.329507,-71246.881314
425.330951,-7550.100608,18801.230927,-72012.976812
425.333513,-12287.418637,8290.306550,-75077.358804
425.336076,-9178.553681,-1036.288319,-75690.235202
425.338639,-740.205942,444.123565,-75996.673402
425.341202,-296.082377,1332.370696,-76456.330700
425.343764,2072.576638,7698.141797,-73391.948708
425.346327,2220.617826,592.164754,-69408.252119
425.348890,-2812.782580,-6513.812290,-68335.718422
425.351453,-740.205942,-148.041188,-69561.471218
425.354016,2368.659014,6365.771101,-74311.263306
425.356578,2368.659014,3108.864956,-76915.987999
425.359141,-1776.494261,7994.224174,-74617.701505
425.361704,-5773.606348,5625.565159,-72166.195912
425.364267,-5773.606348,3108.864956,-71093.662214
425.366830,-888.247130,-2368.659014,-73698.386908
425.369392,-2516.700203,11103.089130,-75383.797003
425.371955,-2516.700203,1628.453072,-74924.139704
425.374518,296.082377,-13323.706956,-73238.729609
425.377081,15396.283594,13767.830521,-72625.853210
425.379643,13767.830521,-24278.754898,-72319.415011
425.382206,7105.977043,-7698.141797,-71400.100414
425.384769,14063.912898,-592.164754,-70327.566716
425.387336,7402.059420,-9030.512492,-70480.785816
425.389902,1036.288319,4737.318029,-71859.757712
425.392469,4885.359217,740.205942,-74311.263306
425.395036,3997.112087,-5921.647536,-76456.330700
425.397603,3849.070898,-7105.977043,-77069.207099
425.400169,3701.029710,-296.082377,-74464.482406
425.402736,6513.812290,-12583.501014,-70787.224015
425.405303,7105.977043,-7994.224174,-71246.881314
425.407870,8734.430116,-3701.029710,-71859.757712
425.410436,14656.077652,-8882.471304,-74464.482406
425.413003,12287.418637,-6957.935855,-74004.825107
425.415570,9474.636058,-5773.606348,-72932.291410
425.418137,2664.741391,-1036.288319,-71093.662214
425.420703,2072.576638,7105.977043,-70940.443115
425.423270,-6365.771101,6661.853478,-73391.948708
425.425837,-13619.789333,8882.471304,-75230.577904
425.428404,-3997.112087,-2072.576638,-76762.768900
425.430970,-1924.535449,6957.935855,-75996.673402
425.433537,5773.606348,-2664.741391,-76456.330700
425.436104,4293.194464,7550.100608,-72625.853210
425.438671,740.205942,1036.288319,-69561.471218
425.441237,-3404.947333,-2664.741391,-68182.499322
425.443804,1184.329507,6809.894666,-71706.538613
425.446371,5033.400406,1776.494261,-75077.358804
425.448938,296.082377,11399.171507,-76149.892501
425.451504,-1776.494261,7550.100608,-73698.386908
425.454071,-4441.235652,-1628.453072,-72012.976812
425.456638,-8734.430116,8586.388927,-71706.538613
425.459205,-1924.535449,-2220.617826,-74311.263306
425.461772,-1184.329507,12435.459826,-74464.482406
425.464338,-740.205942,-592.164754,-74004.825107
425.466905,10066.800811,-21021.848753,-74617.701505
425.469472,1332.370696,11991.336260,-73085.510509
425.472039,14211.954086,-17912.983796,-71859.757712
425.474605,16876.695478,-23094.425390,-70327.566716
425.477172,12287.418637,13915.871710,-70174.347617
425.479739,3701.029710,-12435.459826,-72012.976812
425.482306,1628.453072,9770.718434,-72932.291410
425.484872,-1480.411884,-5921.647536,-76149.892501
425.487439,7994.224174,-4737.318029,-77222.426198
425.490009,3108.864956,-1036.288319,-76303.111601
425.492579,3701.029710,-11251.130318,-72932.291410
425.495149,6513.812290,-6661.853478,-71246.881314
425.497720,5921.647536,-1332.370696,-70327.566716
425.500290,9030.512492,-11547.212695,-72932.291410
425.502860,11695.253884,-5625.565159,-74924.139704
425.505430,11251.130318,-7254.018232,-74004.825107
425.508000,4885.359217,-2960.823768,-71400.100414
425.510570,3997.112087,4885.359217,-70021.128517
425.513141,-7994.224174,15840.407159,-71246.881314
425.515711,-11843.295072,6513.812290,-73851.606007
425.518281,-9770.718434,-740.205942,-75843.454302
425.520851,-3701.029710,7550.100608,-76456.330700
425.523421,1036.288319,-4737.318029,-76149.892501
425.525991,2812.782580,7402.059420,-73851.606007
425.528561,2072.576638,9178.553681,-69561.471218
425.531132,-2812.782580,-888.247130,-69867.909418
425.533702,-592.164754,444.123565,-69255.033019
425.536272,2960.823768,10807.006753,-73391.948708
425.538842,3701.029710,740.205942,-76303.111601
425.541412,0.000000,9622.677246,-75383.797003
425.543982,-5477.523971,2220.617826,-72932.291410
425.546553,-5921.647536,592.164754,-72012.976812
425.549123,-5625.565159,1924.535449,-73238.729609
