#time,accel_x,accel_y,accel_z
1356.050334,2664.741391,-592.164754,-73545.167808
1356.052901,2960.823768,-444.123565,-72932.291410
1356.055469,2516.700203,-444.123565,-73391.948708
1356.058037,2516.700203,-888.247130,-73085.510509
1356.060604,3552.988522,-888.247130,-73085.510509
1356.063172,2368.659014,-296.082377,-73085.510509
1356.065739,1776.494261,-592.164754,-73085.510509
1356.068307,2664.741391,-592.164754,-73085.510509
1356.070875,2220.617826,0.000000,-72472.634111
1356.073442,2516.700203,-296.082377,-73238.729609
1356.076010,2664.741391,-444.123565,-73238.729609
1356.078577,2516.700203,-444.123565,-73391.948708
1356.081145,2220.617826,-592.164754,-72779.072310
1356.083713,3108.864956,-3997.112087,-73085.510509
1356.086280,8734.430116,3701.029710,-73851.606007
1356.088848,-3404.947333,-148.041188,-71553.319513
1356.091415,-7994.224174,-444.123565,-73391.948708
1356.093983,-592.164754,-444.123565,-75230.577904
1356.096551,-7402.059420,2368.659014,-73698.386908
1356.099118,-2368.659014,-1332.370696,-74004.825107
1356.101686,444.123565,-1480.411884,-73238.729609
1356.104253,2960.823768,444.123565,-74158.044206
1356.106821,4293.194464,-592.164754,-72625.853210
1356.109388,-888.247130,1776.494261,-71706.538613
1356.111956,-888.247130,-888.247130,-71246.881314
1356.114524,148.041188,-1332.370696,-72932.291410
1356.117091,2516.700203,0.000000,-74004.825107
1356.119659,7402.059420,-1036.288319,-75383.797003
1356.122072,4293.194464,-296.082377,-74311.263306
1356.124485,5033.400406,740.205942,-72932.291410
1356.126898,9326.594869,-296.082377,-72472.634111
1356.129312,5033.400406,-1776.494261,-72166.195912
1356.131725,8438.347739,-444.123565,-72166.195912
1356.134138,2812.782580,1776.494261,-72319.415011
1356.136551,4885.359217,-4589.276840,-72319.415011
1356.138964,10658.965565,1332.370696,-72319.415011
1356.141378,-1776.494261,296.082377,-75230.577904
1356.143791,2368.659014,-740.205942,-75537.016103
1356.146204,-7402.059420,2220.617826,-72166.195912
1356.148617,2072.576638,1332.370696,-74311.263306
1356.151030,15248.242405,-5033.400406,-72625.853210
1356.153444,7698.141797,740.205942,-71859.757712
1356.155857,5181.441594,-2220.617826,-72625.853210
1356.158270,740.205942,1628.453072,-71706.538613
1356.160683,2072.576638,-740.205942,-75843.454302
1356.163096,10066.800811,-592.164754,-73238.729609
1356.165510,16728.654289,-1480.411884,-71093.662214
1356.167923,9326.594869,-4737.318029,-72779.072310
1356.170336,2664.741391,1184.329507,-73085.510509
1356.172749,3552.988522,2812.782580,-73085.510509
1356.175162,5033.400406,-4293.194464,-72779.072310
1356.177576,7254.018232,2960.823768,-73851.606007
1356.179989,592.164754,-1184.329507,-73238.729609
1356.182402,2072.576638,-1036.288319,-73698.386908
1356.184815,7402.059420,296.082377,-73391.948708
1356.187229,6513.812290,-6513.812290,-74004.825107
1356.189642,11695.253884,-148.041188,-73238.729609
1356.192055,8882.471304,-740.205942,-72319.415011
1356.194468,3849.070898,-1628.453072,-71246.881314
1356.196881,3997.112087,740.205942,-71859.757712
1356.199295,-1924.535449,444.123565,-72625.853210
1356.201708,-3256.906145,1776.494261,-74770.920605
1356.204121,-1924.535449,-2072.576638,-73545.167808
1356.206534,-5033.400406,-1036.288319,-74311.263306
1356.208947,148.041188,2516.700203,-74311.263306
1356.211361,740.205942,-3552.988522,-74617.701505
1356.213774,1924.535449,3552.988522,-73238.729609
1356.216187,-296.082377,-1776.494261,-72472.634111
1356.218644,1332.370696,-592.164754,-72166.195912
1356.221107,-1480.411884,2368.659014,-72932.291410
1356.223570,3256.906145,-1332.370696,-73238.729609
1356.226033,-1628.453072,-592.164754,-73085.510509
1356.228496,-1036.288319,4885.359217,-74770.920605
1356.230959,-2812.782580,-3701.029710,-73085.510509
1356.233423,-1184.329507,5625.565159,-75230.577904
1356.235886,3256.906145,-6809.894666,-72932.291410
1356.238349,5773.606348,-3997.112087,-74770.920605
1356.240812,1184.329507,3256.906145,-73545.167808
1356.243275,-888.247130,-5181.441594,-74158.044206
1356.245738,13915.871710,3701.029710,-71553.319513
1356.248202,-11991.336260,-2220.617826,-71553.319513
1356.250665,16432.571912,-3701.029710,-75230.577904
1356.253128,-12139.377449,1628.453072,-71706.538613
1356.255591,-4589.276840,1036.288319,-72319.415011
1356.258054,8734.430116,-1184.329507,-74464.482406
1356.260517,-8586.388927,-592.164754,-73238.729609
1356.262981,1776.494261,-3997.112087,-74464.482406
1356.265444,0.000000,1184.329507,-73545.167808
1356.267907,-6217.729913,-888.247130,-72779.072310
1356.270370,4737.318029,-148.041188,-73238.729609
1356.272833,296.082377,-2960.823768,-72932.291410
1356.275296,1776.494261,0.000000,-72472.634111
1356.277759,1480.411884,-740.205942,-72932.291410
1356.280223,-6365.771101,-888.247130,-73545.167808
1356.282686,296.082377,-444.123565,-73085.510509
1356.285149,2220.617826,1332.370696,-73238.729609
1356.287612,1332.370696,0.000000,-73391.948708
1356.290075,444.123565,-740.205942,-73545.167808
1356.292538,2220.617826,-592.164754,-74311.263306
1356.295002,8882.471304,3849.070898,-74004.825107
1356.297465,8438.347739,-7698.141797,-72932.291410
1356.299928,6809.894666,592.164754,-72012.976812
1356.302391,7994.224174,-1184.329507,-71859.757712
1356.304854,6661.853478,-3108.864956,-72472.634111
1356.307317,7846.182985,296.082377,-72472.634111
1356.309781,6365.771101,148.041188,-74004.825107
1356.312244,4145.153275,-148.041188,-73085.510509
1356.314707,148.041188,-2368.659014,-73698.386908
1356.317205,4885.359217,740.205942,-74004.825107
1356.319703,8438.347739,1480.411884,-73238.729609
1356.322201,4589.276840,-2812.782580,-74617.701505
1356.324699,9178.553681,3256.906145,-72166.195912
1356.327197,7994.224174,-4441.235652,-73545.167808
1356.329696,14063.912898,-1036.288319,-70787.224015
1356.332194,11103.089130,740.205942,-71093.662214
1356.334692,8438.347739,-5181.441594,-73238.729609
1356.337190,-1628.453072,1924.535449,-73545.167808
1356.339688,-1332.370696,1480.411884,-74770.920605
1356.342186,15544.324782,-5773.606348,-75230.577904
1356.344684,12139.377449,-3701.029710,-73545.167808
1356.347182,-9326.594869,-444.123565,-76456.330700
1356.349680,12731.542202,-1332.370696,-72625.853210
1356.352179,4145.153275,1776.494261,-72932.291410
1356.354677,6809.894666,1628.453072,-72625.853210
1356.357175,9918.759623,-7402.059420,-72932.291410
1356.359673,4293.194464,5625.565159,-72779.072310
1356.362171,5477.523971,-2664.741391,-73085.510509
1356.364669,3552.988522,444.123565,-73238.729609
1356.367167,3997.112087,2664.741391,-73238.729609
1356.369665,3108.864956,-4589.276840,-74158.044206
1356.372163,6513.812290,740.205942,-74311.263306
1356.374662,10066.800811,-888.247130,-74004.825107
1356.377160,8438.347739,-6217.729913,-73545.167808
1356.379658,7550.100608,4293.194464,-72012.976812
1356.382156,3701.029710,-4441.235652,-71859.757712
1356.384654,5033.400406,2220.617826,-71859.757712
1356.387152,-148.041188,-148.041188,-72319.415011
1356.389650,-3997.112087,2368.659014,-74158.044206
1356.392148,-2812.782580,-592.164754,-74158.044206
1356.394646,-4145.153275,-1628.453072,-74464.482406
1356.397145,-2516.700203,-740.205942,-75077.358804
1356.399643,2072.576638,-444.123565,-74311.263306
1356.402141,2220.617826,-2220.617826,-73085.510509
1356.404639,-592.164754,1628.453072,-72472.634111
1356.407137,444.123565,-592.164754,-73085.510509
1356.409635,2516.700203,888.247130,-72472.634111
1356.412133,1924.535449,-592.164754,-72932.291410
1356.414631,-296.082377,-1332.370696,-72625.853210
1356.417154,-1924.535449,-1628.453072,-74311.263306
1356.419677,-6513.812290,0.000000,-75996.673402
1356.422199,3552.988522,-2220.617826,-72625.853210
1356.424722,2220.617826,-444.123565,-75230.577904
1356.427244,8142.265362,-1332.370696,-73698.386908
1356.429767,-12287.418637,2664.741391,-74311.263306
1356.432290,2516.700203,-1628.453072,-74311.263306
1356.434812,12139.377449,592.164754,-72166.195912
1356.437335,-23094.425390,3108.864956,-71553.319513
1356.439857,11695.253884,-5181.441594,-72166.195912
1356.442380,3404.947333,6661.853478,-72625.853210
1356.444903,-9918.759623,-1776.494261,-73085.510509
1356.447425,8882.471304,-1332.370696,-73391.948708
1356.449948,-7846.182985,3997.112087,-73851.606007
1356.452470,-5477.523971,-5181.441594,-73391.948708
1356.454993,6661.853478,1924.535449,-73851.606007
1356.457516,-2220.617826,-1924.535449,-72472.634111
1356.460038,-296.082377,-148.041188,-74004.825107
1356.462561,-2072.576638,3108.864956,-72779.072310
1356.465083,-888.247130,-5329.482782,-73085.510509
1356.467606,1184.329507,1480.411884,-72625.853210
1356.470129,-1480.411884,-3404.947333,-72779.072310
1356.472651,-3701.029710,2220.617826,-73238.729609
1356.475174,-2220.617826,1184.329507,-73391.948708
1356.477696,3849.070898,-1776.494261,-72166.195912
1356.480219,8586.388927,-888.247130,-74004.825107
1356.482742,10066.800811,3849.070898,-74464.482406
1356.485264,4885.359217,-10362.883188,-73085.510509
1356.487787,5773.606348,1776.494261,-73085.510509
1356.490309,6069.688724,888.247130,-71859.757712
1356.492832,7105.977043,-5181.441594,-71553.319513
1356.495355,11103.089130,740.205942,-73238.729609
1356.497893,3552.988522,888.247130,-73698.386908
1356.500432,2516.700203,1924.535449,-73851.606007
1356.502971,1332.370696,-1184.329507,-73391.948708
1356.505510,3108.864956,740.205942,-73545.167808
1356.508049,10955.047942,888.247130,-73085.510509
1356.510587,6069.688724,-2072.576638,-74924.139704
1356.513126,3997.112087,-888.247130,-74617.701505
1356.515665,9770.718434,-888.247130,-71246.881314
1356.518204,-2368.659014,-1036.288319,-73085.510509
1356.520743,-2812.782580,2368.659014,-70634.004916
1356.523282,17764.942608,-2960.823768,-72166.195912
1356.525820,-5921.647536,3404.947333,-73391.948708
1356.528359,13767.830521,-5477.523971,-75690.235202
1356.530898,18801.230927,-6513.812290,-72779.072310
1356.533437,-7105.977043,4145.153275,-75077.358804
1356.535976,8142.265362,-4145.153275,-75690.235202
1356.538514,7254.018232,6513.812290,-73238.729609
1356.541053,10658.965565,-8438.347739,-71553.319513
1356.543592,8438.347739,4737.318029,-72472.634111
1356.546131,-296.082377,-888.247130,-73085.510509
1356.548670,8438.347739,-4441.235652,-73085.510509
1356.551209,2368.659014,8438.347739,-72779.072310
1356.553747,2368.659014,-5329.482782,-73238.729609
1356.556286,14508.036463,-296.082377,-74158.044206
1356.558825,3701.029710,-4885.359217,-73698.386908
1356.561364,7550.100608,-3108.864956,-74004.825107
1356.563903,6809.894666,2960.823768,-72166.195912
1356.566441,6217.729913,-5329.482782,-71859.757712
1356.568980,8734.430116,740.205942,-72625.853210
1356.571519,-1628.453072,0.000000,-71859.757712
1356.574058,-1924.535449,1628.453072,-73545.167808
1356.576597,-6513.812290,148.041188,-73391.948708
1356.579136,-5625.565159,-148.041188,-73851.606007
1356.581674,592.164754,-2072.576638,-74617.701505
1356.584213,-148.041188,-3256.906145,-73698.386908
1356.586752,2072.576638,444.123565,-73238.729609
1356.589291,444.123565,-1480.411884,-72472.634111
1356.591830,592.164754,-148.041188,-72472.634111
1356.594368,3997.112087,-740.205942,-73085.510509
1356.596907,888.247130,-444.123565,-72779.072310
1356.599365,-2664.741391,148.041188,-73698.386908
1356.601824,-5477.523971,296.082377,-74158.044206
1356.604282,-4441.235652,0.000000,-74464.482406
1356.606740,7550.100608,-2220.617826,-71859.757712
1356.609198,7105.977043,-1628.453072,-74770.920605
1356.611656,-1036.288319,-2220.617826,-74158.044206
1356.614115,2960.823768,-592.164754,-73851.606007
1356.616573,6365.771101,-1332.370696,-73391.948708
1356.619031,-7698.141797,592.164754,-72932.291410
1356.621489,-3404.947333,2368.659014,-72779.072310
1356.623947,4441.235652,-4737.318029,-71706.538613
1356.626406,-1332.370696,2960.823768,-70021.128517
1356.628864,-1184.329507,444.123565,-73085.510509
1356.631322,-4145.153275,-1924.535449,-74770.920605
1356.633780,-2220.617826,1036.288319,-73698.386908
1356.636238,1924.535449,-148.041188,-72779.072310
1356.638697,2368.659014,-888.247130,-72166.195912
1356.641155,592.164754,888.247130,-73085.510509
1356.643613,-3849.070898,-2812.782580,-73545.167808
1356.646071,-3256.906145,2072.576638,-73085.510509
1356.648529,1184.329507,-1776.494261,-72932.291410
1356.650988,2516.700203,-3108.864956,-73545.167808
1356.653446,-2368.659014,4589.276840,-72932.291410
1356.655904,-4737.318029,148.041188,-73545.167808
1356.658362,2960.823768,1036.288319,-73391.948708
1356.660820,8142.265362,-1184.329507,-74924.139704
1356.663279,11991.336260,1184.329507,-74464.482406
1356.665737,8734.430116,-2220.617826,-73238.729609
1356.668195,7550.100608,-1776.494261,-72472.634111
1356.670653,6069.688724,-296.082377,-71859.757712
1356.673111,4737.318029,-3256.906145,-71859.757712
1356.675570,9622.677246,-888.247130,-73238.729609
1356.678028,2368.659014,-148.041188,-73851.606007
1356.680486,1628.453072,2960.823768,-74158.044206
1356.682944,1628.453072,-2516.700203,-73545.167808
1356.685402,2072.576638,-740.205942,-73545.167808
1356.687861,8438.347739,1332.370696,-75230.577904
1356.690319,740.205942,-5181.441594,-76915.987999
1356.692777,15100.201217,4441.235652,-73238.729609
1356.695235,7994.224174,-6513.812290,-73085.510509
1356.697728,11843.295072,148.041188,-71246.881314
1356.700221,-1924.535449,3108.864956,-71400.100414
1356.702714,-1776.494261,-2072.576638,-72932.291410
1356.705207,18505.148550,-4441.235652,-72932.291410
1356.707701,6365.771101,888.247130,-73545.167808
1356.710194,-4737.318029,-2220.617826,-76456.330700
1356.712687,14952.160028,-1776.494261,-73085.510509
1356.715180,3849.070898,-2072.576638,-73698.386908
1356.717673,13619.789333,1480.411884,-72625.853210
1356.720166,7254.018232,-5773.606348,-71706.538613
1356.722659,4589.276840,1628.453072,-73238.729609
1356.725152,2960.823768,148.041188,-73851.606007
1356.727645,3701.029710,-296.082377,-73698.386908
1356.730138,740.205942,888.247130,-72779.072310
1356.732631,7402.059420,-4885.359217,-73391.948708
1356.735124,11695.253884,-1184.329507,-74158.044206
1356.737617,9474.636058,-3552.988522,-73851.606007
1356.740110,6217.729913,-1332.370696,-73545.167808
1356.742604,3404.947333,2664.741391,-71859.757712
1356.745097,3108.864956,-148.041188,-72932.291410
1356.747590,-1184.329507,2220.617826,-72932.291410
1356.750083,-1628.453072,888.247130,-74004.825107
1356.752576,-6513.812290,-2516.700203,-73391.948708
1356.755069,-5921.647536,3256.906145,-73391.948708
1356.757562,-2960.823768,-1480.411884,-75077.358804
1356.760055,3404.947333,-444.123565,-74311.263306
1356.762548,4441.235652,2516.700203,-73851.606007
1356.765041,592.164754,-2220.617826,-72472.634111
1356.767534,1480.411884,1924.535449,-72319.415011
1356.770027,444.123565,0.000000,-73238.729609
1356.772520,-1332.370696,-1332.370696,-73851.606007
1356.775014,-296.082377,1776.494261,-71553.319513
1356.777507,3404.947333,-1332.370696,-70480.785816
1356.780000,-3997.112087,148.041188,-73851.606007
1356.782493,-740.205942,148.041188,-74004.825107
1356.784986,-4293.194464,148.041188,-73238.729609
1356.787479,8438.347739,-1924.535449,-73851.606007
1356.789972,148.041188,296.082377,-74158.044206
1356.792465,-7254.018232,1184.329507,-72779.072310
1356.794958,1332.370696,1776.494261,-72625.853210
1356.797478,6069.688724,0.000000,-71093.662214
1356.799997,-5625.565159,1332.370696,-73391.948708
1356.802516,-4293.194464,-444.123565,-72472.634111
1356.805036,-2368.659014,-148.041188,-74464.482406
1356.807555,444.123565,888.247130,-74158.044206
1356.810075,0.000000,1184.329507,-72472.634111
1356.812594,-1332.370696,1036.288319,-73545.167808
1356.815113,1480.411884,-444.123565,-72625.853210
1356.817633,-2220.617826,-1776.494261,-72625.853210
1356.820152,740.205942,148.041188,-72779.072310
1356.822672,740.205942,-444.123565,-72779.072310
1356.825191,-1036.288319,-4885.359217,-73238.729609
1356.827711,-1628.453072,7846.182985,-72472.634111
1356.830230,-1332.370696,-2072.576638,-72625.853210
1356.832749,3404.947333,-148.041188,-73391.948708
1356.835269,9622.677246,2812.782580,-74004.825107
1356.837788,8290.306550,-6809.894666,-74311.263306
1356.840308,9770.718434,592.164754,-72779.072310
1356.842827,10510.924376,-592.164754,-72166.195912
1356.845346,5033.400406,-5625.565159,-71706.538613
1356.847866,3552.988522,2812.782580,-72472.634111
1356.850385,7254.018232,-4737.318029,-73085.510509
1356.852905,6513.812290,1628.453072,-73238.729609
1356.855424,1332.370696,296.082377,-74158.044206
1356.857943,740.205942,-1924.535449,-73545.167808
1356.860463,2516.700203,444.123565,-73391.948708
1356.862982,8438.347739,-2960.823768,-74004.825107
1356.865502,16284.530724,-2220.617826,-72779.072310
1356.868021,10362.883188,-444.123565,-74464.482406
1356.870541,-888.247130,-2516.700203,-72625.853210
1356.873060,-7550.100608,3404.947333,-72472.634111
1356.875579,2664.741391,-3108.864956,-72472.634111
1356.878099,7698.141797,148.041188,-72779.072310
1356.880618,9030.512492,-1628.453072,-72472.634111
1356.883138,-888.247130,-592.164754,-77375.645298
1356.885657,5773.606348,-3256.906145,-75230.577904
1356.888176,7402.059420,5181.441594,-72932.291410
1356.890696,17024.736666,-4441.235652,-72472.634111
1356.893215,3256.906145,888.247130,-71859.757712
1356.895735,2960.823768,-1332.370696,-73391.948708
1356.898274,4737.318029,148.041188,-73545.167808
1356.900813,-1480.411884,888.247130,-73391.948708
1356.903352,8882.471304,-592.164754,-73698.386908
1356.905891,7698.141797,-4737.318029,-73545.167808
1356.908430,9030.512492,-2072.576638,-73851.606007
1356.910969,6069.688724,-148.041188,-73238.729609
1356.913508,5477.523971,-1332.370696,-72472.634111
1356.916047,6809.894666,2072.576638,-71859.757712
1356.918586,-2516.700203,888.247130,-73085.510509
1356.921126,-444.123565,444.123565,-72779.072310
1356.923665,-5477.523971,296.082377,-73698.386908
1356.926204,-4145.153275,-888.247130,-73545.167808
1356.928743,-3552.988522,-1184.329507,-73851.606007
1356.931282,-2516.700203,-5329.482782,-75077.358804
1356.933821,2812.782580,296.082377,-73698.386908
1356.936360,1184.329507,296.082377,-73085.510509
1356.938899,1332.370696,-592.164754,-72012.976812
1356.941438,1332.370696,1480.411884,-72625.853210
1356.943977,-296.082377,-888.247130,-73085.510509
1356.946516,1480.411884,-888.247130,-71859.757712
1356.949056,1480.411884,1776.494261,-70327.566716
1356.951595,-6661.853478,-740.205942,-74464.482406
1356.954134,-4885.359217,1184.329507,-74770.920605
1356.956673,-7402.059420,-888.247130,-75690.235202
1356.959212,8734.430116,-2072.576638,-74464.482406
1356.961751,2960.823768,444.123565,-74158.044206
1356.964290,-6513.812290,148.041188,-72166.195912
1356.966829,740.205942,0.000000,-71246.881314
1356.969368,2220.617826,-888.247130,-74617.701505
1356.971907,-7698.141797,-888.247130,-73391.948708
1356.974446,-4293.194464,-444.123565,-74770.920605
1356.976986,-1628.453072,1628.453072,-73698.386908
1356.979525,-6217.729913,4441.235652,-74004.825107
1356.982064,-3404.947333,-6069.688724,-73545.167808
1356.984603,2368.659014,1924.535449,-72932.291410
1356.987142,-592.164754,-6217.729913,-73238.729609
1356.989681,2812.782580,296.082377,-73085.510509
1356.992220,296.082377,-1184.329507,-73391.948708
1356.994759,148.041188,-888.247130,-73545.167808
1356.997298,-4293.194464,-1480.411884,-72319.415011
1356.999850,-3552.988522,1332.370696,-73238.729609
1357.002402,1480.411884,0.000000,-72472.634111
1357.004954,8734.430116,-1036.288319,-74158.044206
1357.007506,7698.141797,2664.741391,-74004.825107
1357.010058,9770.718434,-9474.636058,-72932.291410
1357.012609,13175.665768,2072.576638,-72472.634111
1357.015161,7994.224174,-1332.370696,-71706.538613
1357.017713,6217.729913,-1776.494261,-72625.853210
1357.020265,6661.853478,1184.329507,-72932.291410
1357.022817,1628.453072,1184.329507,-73545.167808
1357.025369,3404.947333,-1332.370696,-74311.263306
1357.027921,3108.864956,-3552.988522,-73238.729609
1357.030473,8290.306550,1924.535449,-73238.729609
1357.033024,5921.647536,444.123565,-70940.443115
1357.035576,11547.212695,-4293.194464,-73698.386908
1357.038128,15100.201217,-296.082377,-73238.729609
1357.040680,14952.160028,-2960.823768,-71246.881314
1357.043232,-2960.823768,-740.205942,-71706.538613
1357.045784,-1776.494261,2664.741391,-71553.319513
1357.048336,10362.883188,-3256.906145,-73391.948708
1357.050887,2220.617826,1628.453072,-72472.634111
1357.053439,2072.576638,-4293.194464,-75996.673402
1357.055991,12879.583391,-1776.494261,-73238.729609
1357.058543,11991.336260,0.000000,-70480.785816
1357.061095,12879.583391,-2368.659014,-72472.634111
1357.063647,5181.441594,444.123565,-72625.853210
1357.066199,3404.947333,-148.041188,-73238.729609
1357.068751,6365.771101,1628.453072,-73085.510509
1357.071302,1184.329507,-1036.288319,-73851.606007
1357.073854,5625.565159,-1924.535449,-73085.510509
1357.076406,9030.512492,-1776.494261,-73085.510509
1357.078958,7846.182985,-1924.535449,-73391.948708
1357.081510,7402.059420,-2812.782580,-73085.510509
1357.084062,4441.235652,-2220.617826,-72625.853210
1357.086614,4737.318029,1332.370696,-72779.072310
1357.089165,592.164754,888.247130,-72932.291410
1357.091717,-1924.535449,148.041188,-73545.167808
1357.094269,-8142.265362,1480.411884,-73085.510509
1357.096821,-8142.265362,-888.247130,-74004.825107
1357.099373,-3256.906145,-592.164754,-74464.482406
1357.101935,5477.523971,-1480.411884,-74464.482406
1357.104496,2812.782580,-2220.617826,-73851.606007
1357.107058,888.247130,1924.535449,-72472.634111
1357.109619,0.000000,0.000000,-72319.415011
1357.112181,1036.288319,1924.535449,-71859.757712
1357.114742,1036.288319,444.123565,-72932.291410
1357.117304,3701.029710,0.000000,-70940.443115
1357.119866,-740.205942,888.247130,-72932.291410
1357.122427,888.247130,-1184.329507,-73851.606007
1357.124989,-1184.329507,1480.411884,-72166.195912
1357.127550,6513.812290,1036.288319,-74158.044206
1357.130112,4441.235652,-2812.782580,-74924.139704
1357.132674,-13323.706956,4589.276840,-73545.167808
1357.135235,-296.082377,296.082377,-72472.634111
1357.137797,1036.288319,-2812.782580,-75077.358804
1357.140358,-296.082377,4737.318029,-72166.195912
1357.142920,-2220.617826,-1924.535449,-73391.948708
1357.145482,-3108.864956,-1332.370696,-74158.044206
1357.148043,-3108.864956,2960.823768,-73545.167808
1357.150605,1924.535449,-148.041188,-73085.510509
1357.153166,-444.123565,2072.576638,-72625.853210
1357.155728,-1776.494261,-5181.441594,-74004.825107
1357.158290,296.082377,-1628.453072,-73698.386908
1357.160851,296.082377,1776.494261,-73238.729609
1357.163413,888.247130,-4145.153275,-73238.729609
1357.165974,-1628.453072,5181.441594,-72625.853210
1357.168536,-1924.535449,444.123565,-72166.195912
1357.171098,740.205942,-1776.494261,-73851.606007
1357.173659,11103.089130,2664.741391,-74158.044206
1357.176221,6957.935855,-4589.276840,-74464.482406
1357.178782,11695.253884,-740.205942,-73085.510509
1357.181344,11991.336260,888.247130,-72779.072310
1357.183905,4145.153275,-3404.947333,-72779.072310
1357.186467,6069.688724,1924.535449,-72472.634111
1357.189029,7105.977043,-3108.864956,-72625.853210
1357.191590,3849.070898,2220.617826,-73238.729609
1357.194152,888.247130,1776.494261,-74158.044206
1357.196713,2072.576638,-6809.894666,-74004.825107
1357.199275,7994.224174,-148.041188,-74924.139704
1357.201837,11547.212695,-740.205942,-72012.976812
1357.204406,7550.100608,-2664.741391,-73391.948708
1357.206975,20873.807564,-1480.411884,-72625.853210
1357.209545,-12287.418637,1924.535449,-70634.004916
1357.212114,8586.388927,-3552.988522,-72319.415011
1357.214684,6661.853478,2072.576638,-71859.757712
1357.217253,-17024.736666,888.247130,-71859.757712
1357.219823,9474.636058,-3701.029710,-76762.768900
1357.222392,17320.819043,-1628.453072,-72779.072310
1357.224961,-296.082377,-4737.318029,-73698.386908
1357.227531,19245.354492,-888.247130,-73238.729609
1357.230100,-6957.935855,2812.782580,-73545.167808
1357.232670,13027.624579,-4145.153275,-72319.415011
1357.235239,7105.977043,3552.988522,-72932.291410
1357.237809,2516.700203,-3849.070898,-73085.510509
1357.240378,12287.418637,0.000000,-73391.948708
1357.242948,3108.864956,-2072.576638,-73391.948708
1357.245517,6809.894666,-148.041188,-73238.729609
1357.248087,7402.059420,0.000000,-72779.072310
1357.250656,6069.688724,-3849.070898,-73085.510509
1357.253225,3552.988522,3552.988522,-72932.291410
1357.255795,-740.205942,-1184.329507,-72932.291410
1357.258364,-3701.029710,-3701.029710,-73391.948708
1357.260934,-4589.276840,3552.988522,-73085.510509
1357.263503,-6809.894666,-888.247130,-74617.701505
1357.266073,-4145.153275,-4885.359217,-75230.577904
1357.268642,1628.453072,1480.411884,-74617.701505
1357.271212,3108.864956,-1184.329507,-73391.948708
1357.273781,1628.453072,-1036.288319,-71706.538613
1357.276351,1332.370696,1036.288319,-71553.319513
1357.278920,888.247130,1628.453072,-71246.881314
1357.281489,-888.247130,-1332.370696,-71553.319513
1357.284059,2960.823768,0.000000,-72779.072310
1357.286628,1628.453072,1480.411884,-73238.729609
1357.289198,592.164754,-3404.947333,-74617.701505
1357.291767,-8734.430116,6069.688724,-74617.701505
1357.294337,7402.059420,-1776.494261,-73391.948708
1357.296906,12583.501014,-3552.988522,-73545.167808
1357.299476,-740.205942,-444.123565,-72166.195912
1357.302045,-7698.141797,2220.617826,-70021.128517
1357.304615,888.247130,-3108.864956,-72472.634111
1357.307188,2072.576638,3552.988522,-71859.757712
1357.309761,-2960.823768,-1924.535449,-74464.482406
1357.312334,-3108.864956,-2072.576638,-74770.920605
1357.314908,-3404.947333,2220.617826,-73698.386908
1357.317481,2516.700203,-4885.359217,-73698.386908
1357.320054,592.164754,296.082377,-73698.386908
1357.322627,2220.617826,-3701.029710,-73085.510509
1357.325201,3552.988522,444.123565,-73391.948708
1357.327774,-2220.617826,-1628.453072,-72932.291410
1357.330347,-2516.700203,296.082377,-72472.634111
1357.332921,-1480.411884,1776.494261,-72625.853210
1357.335494,3849.070898,-3849.070898,-73851.606007
1357.338067,6809.894666,888.247130,-74464.482406
1357.340640,12435.459826,-6217.729913,-73238.729609
1357.343214,10658.965565,-1924.535449,-73238.729609
1357.345787,9326.594869,148.041188,-71706.538613
1357.348360,9178.553681,-4145.153275,-72166.195912
1357.350934,3404.947333,592.164754,-72625.853210
1357.353507,6217.729913,-2220.617826,-73391.948708
1357.356080,5329.482782,444.123565,-74464.482406
1357.358653,3404.947333,5033.400406,-73545.167808
1357.361227,6661.853478,-6069.688724,-73238.729609
1357.363800,10807.006753,2072.576638,-73545.167808
1357.366373,8290.306550,-148.041188,-71859.757712
1357.368947,17912.983796,-3997.112087,-70787.224015
1357.371520,14063.912898,-740.205942,-73851.606007
1357.374093,-4589.276840,296.082377,-71400.100414
1357.376666,12583.501014,-3849.070898,-72625.853210
1357.379240,19689.478057,-4293.194464,-72625.853210
1357.381813,-16432.571912,1628.453072,-75690.235202
1357.384386,13471.748144,296.082377,-75077.358804
1357.386960,4885.359217,-444.123565,-73391.948708
1357.389533,13027.624579,-5033.400406,-72779.072310
1357.392106,11103.089130,1036.288319,-72932.291410
1357.394679,-3552.988522,-296.082377,-72932.291410
1357.397253,7698.141797,1924.535449,-73238.729609
1357.399826,6809.894666,-296.082377,-73851.606007
1357.402399,6217.729913,-5181.441594,-73238.729609
1357.404973,12139.377449,-2960.823768,-73545.167808
1357.407546,1776.494261,2516.700203,-72625.853210
1357.410122,3404.947333,-3849.070898,-72779.072310
1357.412698,7994.224174,2220.617826,-72472.634111
1357.415274,4293.194464,-592.164754,-73391.948708
1357.417851,1184.329507,148.041188,-72472.634111
1357.420427,-5625.565159,444.123565,-72779.072310
1357.423003,-5773.606348,-296.082377,-72472.634111
1357.425579,-5181.441594,888.247130,-74770.920605
1357.428155,-6069.688724,-5181.441594,-75077.358804
1357.430732,-592.164754,1184.329507,-74770.920605
1357.433308,3108.864956,740.205942,-73698.386908
1357.435884,1480.411884,-2812.782580,-71553.319513
1357.438460,1924.535449,-740.205942,-71246.881314
1357.441037,-1924.535449,2220.617826,-73391.948708
1357.443613,-10362.883188,-148.041188,-75537.016103
1357.446189,1628.453072,1036.288319,-72932.291410
1357.448765,4885.359217,148.041188,-73545.167808
1357.451341,-5033.400406,-888.247130,-72012.976812
1357.453918,8586.388927,592.164754,-74158.044206
1357.456494,6957.935855,-296.082377,-74464.482406
1357.459070,10066.800811,-296.082377,-70634.004916
1357.461646,-4441.235652,0.000000,-73238.729609
1357.464222,-10214.842000,2516.700203,-74311.263306
1357.466799,-148.041188,-1184.329507,-72166.195912
1357.469375,-3256.906145,3108.864956,-73545.167808
1357.471951,-888.247130,-7846.182985,-75690.235202
1357.474527,-2516.700203,3997.112087,-73698.386908
1357.477103,-5477.523971,-3701.029710,-72319.415011
1357.479680,1480.411884,-4145.153275,-73391.948708
1357.482256,296.082377,1332.370696,-73545.167808
1357.484832,2812.782580,-3849.070898,-73085.510509
1357.487408,-296.082377,444.123565,-73238.729609
1357.489984,-3256.906145,3552.988522,-73238.729609
1357.492561,-2812.782580,-2812.782580,-72472.634111
1357.495137,3404.947333,-296.082377,-72319.415011
1357.497713,9770.718434,148.041188,-74617.701505
1357.500289,12139.377449,-5033.400406,-73391.948708
1357.502866,11251.130318,-592.164754,-73085.510509
1357.505442,9030.512492,-444.123565,-72319.415011
1357.508018,6809.894666,-1628.453072,-72166.195912
1357.510594,5625.565159,-444.123565,-72625.853210
1357.513113,7846.182985,-1628.453072,-72625.853210
1357.515631,1776.494261,296.082377,-73545.167808
1357.518150,4441.235652,1480.411884,-74464.482406
1357.520668,5921.647536,-3701.029710,-73085.510509
1357.523187,8586.388927,3701.029710,-73545.167808
1357.525706,13027.624579,-6809.894666,-72319.415011
1357.528224,15100.201217,444.123565,-72779.072310
1357.530743,-2220.617826,888.247130,-72012.976812
1357.533261,888.247130,-1924.535449,-72625.853210
1357.535780,2072.576638,888.247130,-72012.976812
1357.538299,-3404.947333,740.205942,-72932.291410
1357.540817,6217.729913,-1036.288319,-77835.302597
1357.543336,13767.830521,-740.205942,-73391.948708
1357.545854,4145.153275,-4589.276840,-72779.072310
1357.548373,14508.036463,888.247130,-72166.195912
1357.550892,-1628.453072,-1924.535449,-72012.976812
1357.553410,11695.253884,1480.411884,-72932.291410
1357.555929,10214.842000,-888.247130,-73391.948708
1357.558447,888.247130,-2960.823768,-73238.729609
1357.560966,10214.842000,-1480.411884,-74311.263306
1357.563485,2220.617826,296.082377,-72625.853210
1357.566003,3552.988522,-3997.112087,-72779.072310
1357.568522,12139.377449,3552.988522,-73238.729609
1357.571040,6365.771101,-1924.535449,-73085.510509
1357.573559,740.205942,592.164754,-73545.167808
1357.576078,-5181.441594,2516.700203,-73238.729609
1357.578596,-8290.306550,-148.041188,-73545.167808
1357.581115,-6365.771101,1628.453072,-73391.948708
1357.583633,-2516.700203,-3552.988522,-74464.482406
1357.586152,4885.359217,-592.164754,-73085.510509
1357.588671,-1924.535449,-2812.782580,-73698.386908
1357.591189,1924.535449,-148.041188,-73545.167808
1357.593708,1184.329507,1036.288319,-72625.853210
1357.596226,-592.164754,-2516.700203,-70327.566716
1357.598745,4145.153275,1184.329507,-70327.566716
1357.601264,-5477.523971,2664.741391,-73851.606007
1357.603782,-10510.924376,-444.123565,-72166.195912
1357.606301,7254.018232,740.205942,-75537.016103
1357.608819,7994.224174,-3404.947333,-74158.044206
1357.611338,-6809.894666,-740.205942,-71859.757712
1357.613872,-3552.988522,3701.029710,-73545.167808
1357.616407,-3997.112087,-2220.617826,-75383.797003
1357.618941,6365.771101,1184.329507,-70940.443115
1357.621475,-10955.047942,3997.112087,-74464.482406
1357.624010,-3108.864956,-3404.947333,-74311.263306
1357.626544,-2220.617826,8438.347739,-73851.606007
1357.629079,-3108.864956,-8586.388927,-73545.167808
1357.631613,-1776.494261,2220.617826,-73851.606007
1357.634147,1036.288319,-1184.329507,-73238.729609
1357.636682,1480.411884,-6217.729913,-73391.948708
1357.639216,5329.482782,1776.494261,-73238.729609
1357.641751,-1776.494261,888.247130,-73238.729609
1357.644285,-8586.388927,148.041188,-72472.634111
1357.646819,2516.700203,1332.370696,-72166.195912
1357.649354,4589.276840,-1036.288319,-74158.044206
1357.651888,8290.306550,1924.535449,-74311.263306
1357.654423,10362.883188,-7105.977043,-73698.386908
1357.656957,7994.224174,0.000000,-72472.634111
1357.659491,10066.800811,-1036.288319,-72166.195912
1357.662026,8586.388927,-2812.782580,-71859.757712
1357.664560,6217.729913,592.164754,-72779.072310
1357.667095,3849.070898,-1480.411884,-73391.948708
1357.669629,2960.823768,-1480.411884,-74004.825107
1357.672163,3997.112087,444.123565,-74924.139704
1357.674698,10214.842000,-7402.059420,-71859.757712
1357.677232,3849.070898,3997.112087,-75690.235202
1357.679767,4737.318029,1036.288319,-73391.948708
1357.682301,17024.736666,-5477.523971,-72779.072310
1357.684835,1628.453072,888.247130,-70940.443115
1357.687370,7846.182985,-2960.823768,-71859.757712
1357.689904,2220.617826,-740.205942,-72779.072310
1357.692439,-5625.565159,-1184.329507,-75230.577904
1357.694985,9770.718434,1924.535449,-75077.358804
1357.697532,10658.965565,-1184.329507,-71093.662214
1357.700079,10066.800811,-4145.153275,-72319.415011
1357.702626,11103.089130,888.247130,-72472.634111
1357.705172,-2072.576638,-1332.370696,-73698.386908
1357.707719,10214.842000,2368.659014,-73238.729609
1357.710266,7105.977043,-1036.288319,-73851.606007
1357.712813,8438.347739,-3552.988522,-73851.606007
1357.715359,7254.018232,2960.823768,-72625.853210
1357.717906,1924.535449,-2220.617826,-72625.853210
1357.720453,6069.688724,888.247130,-73545.167808
1357.723000,6365.771101,2072.576638,-73085.510509
1357.725547,740.205942,-3404.947333,-73698.386908
1357.728093,-148.041188,4441.235652,-73238.729609
1357.730640,-8586.388927,-2368.659014,-73545.167808
1357.733187,-7994.224174,1480.411884,-73085.510509
1357.735734,-5477.523971,444.123565,-74464.482406
1357.738280,1036.288319,-888.247130,-74464.482406
1357.740827,2812.782580,148.041188,-72932.291410
1357.743374,2664.741391,-1776.494261,-72319.415011
1357.745921,740.205942,1924.535449,-71553.319513
1357.748467,-2664.741391,-1480.411884,-72932.291410
1357.751014,-2664.741391,2812.782580,-72625.853210
1357.753561,-8734.430116,-2220.617826,-74158.044206
1357.756108,-16432.571912,2368.659014,-73238.729609
1357.758654,5477.523971,-1332.370696,-75537.016103
1357.761201,7254.018232,-2960.823768,-74770.920605
1357.763748,-10510.924376,3849.070898,-73698.386908
1357.766295,3997.112087,444.123565,-73391.948708
1357.768842,5477.523971,-5033.400406,-71706.538613
1357.771388,-12583.501014,4589.276840,-72932.291410
1357.773935,-5773.606348,-2516.700203,-74617.701505
1357.776482,-4441.235652,5773.606348,-74617.701505
1357.779029,-7402.059420,-888.247130,-74311.263306
1357.781575,-740.205942,-1628.453072,-72779.072310
1357.784122,3404.947333,1924.535449,-72472.634111
1357.786669,5181.441594,-6217.729913,-72779.072310
1357.789216,-148.041188,2368.659014,-73851.606007
1357.791762,-3552.988522,-2812.782580,-73698.386908
1357.794309,592.164754,2812.782580,-71859.757712
1357.796865,1628.453072,1184.329507,-72625.853210
1357.799421,3256.906145,-444.123565,-73545.167808
1357.801976,7254.018232,-592.164754,-74311.263306
1357.804532,8734.430116,-5033.400406,-73545.167808
1357.807087,13323.706956,-592.164754,-72779.072310
1357.809643,10510.924376,-1480.411884,-71859.757712
1357.812199,7846.182985,-2368.659014,-71706.538613
1357.814754,4885.359217,1332.370696,-72625.853210
1357.817310,4885.359217,-1036.288319,-73085.510509
1357.819866,3849.070898,-1184.329507,-73851.606007
1357.822421,3849.070898,148.041188,-74617.701505
1357.824977,7698.141797,444.123565,-74311.263306
1357.827533,9178.553681,-2220.617826,-72625.853210
1357.830088,19837.519246,-2664.741391,-72012.976812
1357.832644,6365.771101,-444.123565,-74311.263306
1357.835200,-2072.576638,1480.411884,-72625.853210
1357.837755,-8882.471304,296.082377,-72012.976812
1357.840311,12139.377449,-3552.988522,-75230.577904
1357.842866,11251.130318,-444.123565,-71706.538613
1357.845422,9474.636058,-6365.771101,-74464.482406
1357.847978,4145.153275,740.205942,-73851.606007
1357.850533,148.041188,1036.288319,-71859.757712
1357.853089,14656.077652,-2072.576638,-72625.853210
1357.855645,11251.130318,-2812.782580,-73545.167808
1357.858200,6365.771101,-1332.370696,-73238.729609
1357.860756,11103.089130,-2072.576638,-73545.167808
1357.863312,148.041188,-444.123565,-73238.729609
1357.865867,6217.729913,-3108.864956,-73238.729609
1357.868423,5625.565159,444.123565,-72012.976812
1357.870979,8438.347739,-1924.535449,-73085.510509
1357.873534,2812.782580,1332.370696,-74311.263306
1357.876090,-5181.441594,1924.535449,-73851.606007
1357.878645,-5181.441594,0.000000,-72625.853210
1357.881201,-6809.894666,296.082377,-73698.386908
1357.883757,-2812.782580,-888.247130,-74311.263306
1357.886312,1332.370696,-4293.194464,-74617.701505
1357.888868,-296.082377,148.041188,-74004.825107
1357.891424,-2664.741391,2664.741391,-73085.510509
1357.893979,1332.370696,-4589.276840,-72012.976812
1357.896535,-1036.288319,4441.235652,-71093.662214
1357.899098,5477.523971,-1480.411884,-71400.100414
1357.901660,444.123565,-2812.782580,-73238.729609
1357.904223,3552.988522,444.123565,-73545.167808
1357.906786,-592.164754,-1628.453072,-74158.044206
1357.909348,-2072.576638,296.082377,-74158.044206
1357.911911,-1628.453072,-888.247130,-75077.358804
1357.914474,1776.494261,-1036.288319,-71553.319513
1357.917036,1184.329507,592.164754,-72779.072310
1357.919599,-4441.235652,2220.617826,-71246.881314
1357.922162,-1776.494261,-4589.276840,-73085.510509
1357.924724,-2664.741391,7105.977043,-74004.825107
1357.927287,-2664.741391,-6069.688724,-74770.920605
1357.929850,-2516.700203,1332.370696,-74464.482406
1357.932412,1184.329507,2220.617826,-72472.634111
1357.934975,4145.153275,-5329.482782,-72779.072310
1357.937538,3701.029710,296.082377,-72932.291410
1357.940100,-444.123565,2664.741391,-73085.510509
1357.942663,-5329.482782,-1036.288319,-73085.510509
1357.945226,1184.329507,2960.823768,-72012.976812
1357.947788,6957.935855,-1332.370696,-74924.139704
1357.950351,7994.224174,888.247130,-74158.044206
1357.952914,8290.306550,-5329.482782,-73851.606007
1357.955476,8882.471304,-1924.535449,-72932.291410
1357.958039,8438.347739,444.123565,-71553.319513
1357.960601,8438.347739,-3849.070898,-72932.291410
1357.963164,5625.565159,740.205942,-72166.195912
1357.965727,4885.359217,-740.205942,-73545.167808
1357.968289,2072.576638,-740.205942,-73698.386908
1357.970852,4589.276840,-1628.453072,-73238.729609
1357.973415,12731.542202,2812.782580,-72625.853210
1357.975977,7994.224174,-2368.659014,-72779.072310
1357.978540,5181.441594,-444.123565,-72166.195912
1357.981103,26499.372724,1776.494261,-70634.004916
1357.983665,-8142.265362,-1628.453072,-70940.443115
1357.986228,25463.084405,-4145.153275,-73238.729609
1357.988791,-148.041188,2516.700203,-73545.167808
1357.991353,1924.535449,-5329.482782,-72779.072310
1357.993916,14952.160028,-1628.453072,-73238.729609
1357.996479,1924.535449,148.041188,-72012.976812
1357.999041,6957.935855,-2072.576638,-72472.634111
1358.001610,12287.418637,-5773.606348,-73391.948708
1358.004178,296.082377,1628.453072,-73238.729609
1358.006747,10066.800811,-5033.400406,-74004.825107
1358.009315,2960.823768,2812.782580,-73238.729609
1358.011884,8882.471304,-4441.235652,-73851.606007
1358.014452,7254.018232,-1184.329507,-72932.291410
1358.017021,4885.359217,-148.041188,-72932.291410
1358.019589,-592.164754,444.123565,-74004.825107
1358.022158,-1628.453072,3108.864956,-73085.510509
1358.024726,-1332.370696,-2220.617826,-73238.729609
1358.027295,-3552.988522,2220.617826,-72779.072310
1358.029863,-6661.853478,-1036.288319,-74924.139704
1358.032432,-3849.070898,-740.205942,-75230.577904
1358.035000,-1184.329507,1036.288319,-74004.825107
1358.037569,592.164754,1332.370696,-73391.948708
1358.040137,740.205942,-4293.194464,-72012.976812
1358.042706,2516.700203,4145.153275,-72932.291410
1358.045274,-3404.947333,-1628.453072,-73698.386908
1358.047843,-1776.494261,-888.247130,-71553.319513
1358.050411,7698.141797,-2368.659014,-72779.072310
1358.052980,-9770.718434,888.247130,-73545.167808
1358.055548,-1628.453072,148.041188,-74004.825107
1358.058117,11399.171507,-6513.812290,-74770.920605
1358.060685,-5921.647536,3552.988522,-71706.538613
1358.063254,-6365.771101,592.164754,-71553.319513
1358.065822,2368.659014,-1036.288319,-71706.538613
1358.068391,-3256.906145,2072.576638,-71706.538613
1358.070959,-1184.329507,-5329.482782,-75383.797003
1358.073528,-4145.153275,6661.853478,-74158.044206
1358.076097,-3997.112087,-2368.659014,-74311.263306
1358.078665,1924.535449,-3701.029710,-73085.510509
1358.081234,1480.411884,3108.864956,-72625.853210
1358.083802,2220.617826,-3552.988522,-73391.948708
1358.086371,2072.576638,7994.224174,-72472.634111
1358.088939,-4145.153275,-4145.153275,-72166.195912
1358.091508,592.164754,1480.411884,-73545.167808
1358.094076,7105.977043,6069.688724,-74004.825107
1358.096645,6957.935855,-11251.130318,-74004.825107
1358.099213,13619.789333,2516.700203,-72472.634111
1358.101782,9474.636058,-1184.329507,-71859.757712
1358.104305,7994.224174,-3108.864956,-72319.415011
1358.106828,6809.894666,0.000000,-72166.195912
1358.109350,6957.935855,740.205942,-72932.291410
1358.111873,4293.194464,-1332.370696,-73545.167808
1358.114396,4885.359217,1184.329507,-73851.606007
1358.116919,4589.276840,-296.082377,-74311.263306
1358.119442,14211.954086,-1332.370696,-72779.072310
1358.121965,13915.871710,-4885.359217,-74158.044206
1358.124488,-740.205942,1332.370696,-72625.853210
1358.127011,592.164754,888.247130,-72319.415011
1358.129534,7698.141797,-3108.864956,-73085.510509
1358.132057,-1776.494261,3108.864956,-71706.538613
1358.134580,5033.400406,2072.576638,-74004.825107
1358.137103,15988.448347,-6365.771101,-75690.235202
1358.139626,6217.729913,148.041188,-72012.976812
1358.142149,11251.130318,1184.329507,-72779.072310
1358.144672,2960.823768,-6217.729913,-71706.538613
1358.147195,3997.112087,-1332.370696,-72779.072310
1358.149718,10510.924376,-1776.494261,-74004.825107
1358.152241,2960.823768,-3256.906145,-73698.386908
1358.154764,7254.018232,-3108.864956,-72779.072310
1358.157287,5033.400406,444.123565,-72779.072310
1358.159810,3997.112087,-3256.906145,-73085.510509
1358.162333,1776.494261,2368.659014,-73851.606007
1358.164856,-1036.288319,1628.453072,-73545.167808
1358.167379,-888.247130,-740.205942,-73238.729609
1358.169902,-4737.318029,1480.411884,-72932.291410
1358.172425,-5921.647536,-444.123565,-73851.606007
1358.174948,-2664.741391,-1480.411884,-74464.482406
1358.177471,296.082377,2664.741391,-74770.920605
1358.179994,2368.659014,-2516.700203,-72932.291410
1358.182517,3552.988522,592.164754,-72625.853210
1358.185040,296.082377,1036.288319,-70327.566716
1358.187563,296.082377,-1628.453072,-70787.224015
1358.190086,1628.453072,-592.164754,-73391.948708
1358.192609,8438.347739,444.123565,-73391.948708
1358.195132,7550.100608,-5329.482782,-72012.976812
1358.197655,-5329.482782,3552.988522,-73851.606007
1358.200178,8438.347739,-4737.318029,-74004.825107
1358.202701,3997.112087,-148.041188,-74311.263306
1358.205239,-17764.942608,4293.194464,-73391.948708
1358.207777,-4737.318029,-3997.112087,-72932.291410
1358.210314,-592.164754,6809.894666,-72625.853210
1358.212852,592.164754,296.082377,-74311.263306
1358.215390,-1036.288319,-4145.153275,-74924.139704
1358.217927,-6365.771101,5773.606348,-73851.606007
1358.220465,2812.782580,-4589.276840,-73238.729609
1358.223002,5921.647536,148.041188,-72625.853210
1358.225540,1924.535449,592.164754,-73238.729609
1358.228078,-2960.823768,-1628.453072,-72625.853210
1358.230615,-3701.029710,5181.441594,-73238.729609
1358.233153,3256.906145,1480.411884,-74311.263306
1358.235690,8438.347739,-2072.576638,-74770.920605
1358.238228,12583.501014,-4293.194464,-73085.510509
1358.240766,9474.636058,-6661.853478,-72319.415011
1358.243303,7698.141797,3404.947333,-72012.976812
1358.245841,7698.141797,-4145.153275,-72625.853210
1358.248378,7254.018232,1036.288319,-72779.072310
1358.250916,7698.141797,888.247130,-73085.510509
1358.253454,4441.235652,-2960.823768,-72779.072310
1358.255991,4589.276840,0.000000,-72779.072310
1358.258529,5181.441594,-2368.659014,-74770.920605
1358.261066,4293.194464,1036.288319,-74464.482406
1358.263604,7698.141797,-296.082377,-73851.606007
1358.266141,5477.523971,-1776.494261,-72166.195912
1358.268679,740.205942,-1036.288319,-72166.195912
1358.271217,-1924.535449,-592.164754,-71859.757712
1358.273754,8142.265362,0.000000,-72779.072310
1358.276292,12287.418637,-1184.329507,-73391.948708
1358.278829,10362.883188,-2516.700203,-72166.195912
1358.281367,13175.665768,740.205942,-73545.167808
1358.283905,3997.112087,-3256.906145,-71706.538613
1358.286442,4589.276840,-2664.741391,-72779.072310
1358.288980,8290.306550,444.123565,-73851.606007
1358.291517,3701.029710,-1480.411884,-73698.386908
1358.294055,8586.388927,-2960.823768,-72779.072310
1358.296593,3997.112087,296.082377,-72779.072310
1358.299130,4885.359217,-2072.576638,-73238.729609
1358.301668,592.164754,1776.494261,-73545.167808
1358.304205,-888.247130,2072.576638,-72779.072310
1358.306755,-1184.329507,-1036.288319,-73085.510509
1358.309304,-4293.194464,888.247130,-72625.853210
1358.311853,-592.164754,740.205942,-73851.606007
1358.314403,-2220.617826,-1628.453072,-74770.920605
1358.316952,-2368.659014,2960.823768,-74464.482406
1358.319502,2220.617826,-1924.535449,-73085.510509
1358.322051,3997.112087,-1924.535449,-72472.634111
1358.324600,-888.247130,-592.164754,-73851.606007
1358.327150,-8586.388927,-888.247130,-73545.167808
1358.329699,-5329.482782,2664.741391,-72012.976812
1358.332248,-12879.583391,4589.276840,-74158.044206
1358.334798,6661.853478,-6365.771101,-75843.454302
1358.337347,2072.576638,1184.329507,-73545.167808
1358.339896,-8586.388927,1184.329507,-73085.510509
1358.342446,7550.100608,-5329.482782,-75230.577904
1358.344995,-5477.523971,2812.782580,-71706.538613
1358.347544,-10807.006753,444.123565,-73545.167808
1358.350094,-7254.018232,296.082377,-73391.948708
1358.352643,-12287.418637,3701.029710,-74311.263306
1358.355192,2368.659014,-1184.329507,-74617.701505
1358.357742,5033.400406,-3256.906145,-72625.853210
1358.360291,1628.453072,2220.617826,-72779.072310
1358.362840,2516.700203,-740.205942,-72472.634111
1358.365390,-4441.235652,2368.659014,-73391.948708
1358.367939,1184.329507,1628.453072,-72166.195912
1358.370489,3404.947333,-4737.318029,-74617.701505
1358.373038,8142.265362,592.164754,-74770.920605
1358.375587,9918.759623,-4885.359217,-74004.825107
1358.378137,8438.347739,-740.205942,-72779.072310
1358.380686,10658.965565,-148.041188,-72012.976812
1358.383235,9178.553681,-1776.494261,-72166.195912
1358.385785,6809.894666,-1480.411884,-72779.072310
1358.388334,7254.018232,3997.112087,-73851.606007
1358.390883,296.082377,-2220.617826,-74004.825107
1358.393433,7550.100608,2368.659014,-71400.100414
1358.395982,5329.482782,-740.205942,-74924.139704
1358.398531,5033.400406,-888.247130,-72012.976812
1358.401081,6661.853478,1036.288319,-74770.920605
1358.403630,11695.253884,-1036.288319,-72472.634111
1358.406179,-1184.329507,-1924.535449,-71859.757712
1358.408691,-2368.659014,1184.329507,-73238.729609
1358.411203,12139.377449,0.000000,-74158.044206
1358.413715,12879.583391,-2664.741391,-73238.729609
1358.416228,9326.594869,1924.535449,-73238.729609
1358.418740,14359.995275,-2960.823768,-73851.606007
1358.421252,3849.070898,-740.205942,-72012.976812
1358.423764,7846.182985,-1776.494261,-72319.415011
1358.426276,8142.265362,-1924.535449,-72932.291410
1358.428788,5773.606348,-1924.535449,-73391.948708
1358.431300,6661.853478,-3108.864956,-72779.072310
1358.433812,4441.235652,3256.906145,-72319.415011
1358.436324,8142.265362,-4441.235652,-73851.606007
1358.438836,-2516.700203,3849.070898,-73545.167808
1358.441348,-3404.947333,-1184.329507,-73085.510509
1358.443860,-4737.318029,0.000000,-73391.948708
1358.446372,-5625.565159,444.123565,-72932.291410
1358.448884,-1480.411884,-1184.329507,-74311.263306
1358.451396,444.123565,-3849.070898,-75230.577904
1358.453908,-1628.453072,2664.741391,-73698.386908
1358.456420,-1332.370696,0.000000,-73545.167808
1358.458932,2960.823768,-3552.988522,-72166.195912
1358.461444,-3552.988522,-296.082377,-74464.482406
1358.463956,-1332.370696,-1924.535449,-72625.853210
1358.466468,444.123565,1036.288319,-74158.044206
1358.468980,-7846.182985,1628.453072,-73391.948708
1358.471492,-888.247130,-148.041188,-73545.167808
1358.474004,14211.954086,-5477.523971,-74311.263306
1358.476516,-8142.265362,4293.194464,-73238.729609
1358.479028,-8438.347739,-4293.194464,-72932.291410
1358.481540,-1776.494261,2516.700203,-74464.482406
1358.484052,-10214.842000,-1332.370696,-71859.757712
1358.486564,4441.235652,-1628.453072,-74158.044206
1358.489076,1628.453072,592.164754,-74770.920605
1358.491588,-3552.988522,-2072.576638,-73085.510509
1358.494100,2960.823768,2960.823768,-73851.606007
1358.496612,740.205942,-2812.782580,-72166.195912
1358.499124,4737.318029,2664.741391,-72319.415011
1358.501636,-1924.535449,148.041188,-73238.729609
1358.504148,-2220.617826,0.000000,-73545.167808
1358.506660,7254.018232,2960.823768,-73391.948708
1358.509189,6661.853478,-3108.864956,-74004.825107
1358.511718,10807.006753,-1036.288319,-72779.072310
1358.514247,11547.212695,-2368.659014,-72319.415011
1358.516777,7105.977043,-2368.659014,-71859.757712
1358.519306,9030.512492,-1628.453072,-72779.072310
1358.521835,3552.988522,-296.082377,-73698.386908
1358.524364,7254.018232,1628.453072,-73085.510509
1358.526893,3404.947333,-3256.906145,-74464.482406
1358.529422,1628.453072,-1184.329507,-74004.825107
1358.531951,8586.388927,-1332.370696,-72319.415011
1358.534481,5033.400406,444.123565,-74924.139704
1358.537010,8438.347739,-740.205942,-72625.853210
1358.539539,296.082377,-444.123565,-72012.976812
1358.542068,-1036.288319,-444.123565,-72779.072310
1358.544597,15396.283594,-592.164754,-73698.386908
1358.547126,6365.771101,-2812.782580,-73085.510509
1358.549655,7846.182985,1480.411884,-73238.729609
1358.552185,10955.047942,-2812.782580,-73391.948708
1358.554714,6069.688724,-148.041188,-72012.976812
1358.557243,11399.171507,1628.453072,-72472.634111
1358.559772,4441.235652,-4589.276840,-72932.291410
1358.562301,2960.823768,1036.288319,-73851.606007
1358.564830,6069.688724,-1776.494261,-72472.634111
1358.567359,3108.864956,1480.411884,-72932.291410
1358.569889,9178.553681,-740.205942,-73698.386908
1358.572418,444.123565,-2220.617826,-73391.948708
1358.574947,-3849.070898,3701.029710,-73545.167808
1358.577476,-4885.359217,-2664.741391,-73238.729609
1358.580005,-9918.759623,1776.494261,-72932.291410
1358.582534,2368.659014,1036.288319,-74158.044206
1358.585063,-3256.906145,-5625.565159,-74770.920605
1358.587593,740.205942,4589.276840,-74004.825107
1358.590122,1332.370696,1480.411884,-72625.853210
1358.592651,-1776.494261,-5181.441594,-72319.415011
1358.595180,1924.535449,4589.276840,-72625.853210
1358.597709,-9030.512492,-592.164754,-73085.510509
1358.600238,3701.029710,0.000000,-72932.291410
1358.602767,10362.883188,-2664.741391,-72932.291410
1358.605297,-3404.947333,-740.205942,-73238.729609
1358.607826,-4441.235652,296.082377,-74617.701505
1358.610369,11547.212695,-3997.112087,-72319.415011
1358.612912,-10955.047942,3997.112087,-71093.662214
1358.615455,-8438.347739,-3849.070898,-73851.606007
1358.617999,-1628.453072,7105.977043,-73391.948708
1358.620542,-3701.029710,-5773.606348,-73851.606007
1358.623085,888.247130,2664.741391,-73698.386908
1358.625628,-2812.782580,-1480.411884,-74311.263306
1358.628171,3108.864956,-7698.141797,-73391.948708
1358.630715,888.247130,8734.430116,-72319.415011
1358.633258,-2664.741391,-1924.535449,-72625.853210
1358.635801,1776.494261,1924.535449,-72779.072310
1358.638344,4293.194464,3404.947333,-74464.482406
1358.640887,8438.347739,-3404.947333,-74158.044206
1358.643431,12435.459826,-1480.411884,-73085.510509
1358.645974,8586.388927,-2516.700203,-73238.729609
1358.648517,7698.141797,-1628.453072,-71553.319513
1358.651060,8142.265362,-592.164754,-72012.976812
1358.653603,4589.276840,444.123565,-73238.729609
1358.656147,10066.800811,1036.288319,-74004.825107
1358.658690,1924.535449,-3997.112087,-73851.606007
1358.661233,4737.318029,2220.617826,-72472.634111
1358.663776,2220.617826,-444.123565,-75690.235202
1358.666320,16432.571912,-888.247130,-72779.072310
1358.668863,30792.567187,-2960.823768,-74158.044206
1358.671406,-6809.894666,-444.123565,-72012.976812
1358.673949,740.205942,2516.700203,-73391.948708
1358.676492,28868.031738,-1480.411884,-70940.443115
1358.679036,-5773.606348,-296.082377,-71706.538613
1358.681579,16580.613101,1628.453072,-75077.358804
1358.684122,7105.977043,-4589.276840,-74158.044206
1358.686665,8290.306550,740.205942,-71553.319513
1358.689208,20873.807564,444.123565,-72932.291410
1358.691752,3256.906145,-3849.070898,-73238.729609
1358.694295,3404.947333,-740.205942,-73238.729609
1358.696838,1628.453072,-1036.288319,-72319.415011
1358.699381,592.164754,3256.906145,-73085.510509
1358.701924,14063.912898,-3404.947333,-73545.167808
1358.704468,-2516.700203,1184.329507,-73238.729609
1358.707011,-1332.370696,3108.864956,-73085.510509
1358.709554,-5329.482782,-2960.823768,-73391.948708
1358.712065,-11399.171507,1332.370696,-73085.510509
1358.714575,1776.494261,3108.864956,-74464.482406
1358.717086,-148.041188,-7402.059420,-74464.482406
1358.719597,1480.411884,4441.235652,-73391.948708
1358.722108,-1036.288319,-2664.741391,-72779.072310
1358.724618,-888.247130,-740.205942,-72472.634111
1358.727129,2664.741391,2368.659014,-71706.538613
1358.729640,2812.782580,-740.205942,-72319.415011
1358.732151,-9178.553681,296.082377,-72472.634111
1358.734661,444.123565,1776.494261,-75077.358804
1358.737172,-2368.659014,-2220.617826,-75230.577904
1358.739683,-4293.194464,3701.029710,-74464.482406
1358.742193,740.205942,-5477.523971,-73698.386908
1358.744704,-5773.606348,5625.565159,-72625.853210
1358.747215,-1628.453072,148.041188,-73238.729609
1358.749726,-10066.800811,-4293.194464,-74158.044206
1358.752236,-4441.235652,7254.018232,-74311.263306
1358.754747,1036.288319,-8882.471304,-73698.386908
1358.757258,2220.617826,5773.606348,-73698.386908
1358.759769,5033.400406,-3404.947333,-73085.510509
1358.762279,1184.329507,3997.112087,-72012.976812
1358.764790,-2664.741391,-1036.288319,-72625.853210
1358.767301,3256.906145,-3849.070898,-73391.948708
1358.769811,6217.729913,3701.029710,-74158.044206
1358.772322,8586.388927,-5477.523971,-74158.044206
1358.774833,12583.501014,-1332.370696,-72472.634111
1358.777344,9178.553681,1480.411884,-72319.415011
1358.779854,6809.894666,-4737.318029,-72166.195912
1358.782365,8142.265362,148.041188,-72472.634111
1358.784876,7994.224174,1036.288319,-73698.386908
1358.787387,6217.729913,-2664.741391,-72472.634111
1358.789897,9178.553681,-148.041188,-71246.881314
1358.792408,296.082377,592.164754,-74311.263306
1358.794919,6957.935855,1776.494261,-72319.415011
1358.797430,21317.931130,-3997.112087,-73851.606007
1358.799940,10955.047942,-1776.494261,-71553.319513
1358.802451,6365.771101,-1776.494261,-72166.195912
1358.804962,2072.576638,-3404.947333,-73851.606007
1358.807472,3701.029710,2220.617826,-72932.291410
1358.809983,14656.077652,-2368.659014,-72319.415011
1358.812512,11251.130318,-2812.782580,-72932.291410
1358.815041,13915.871710,1036.288319,-72932.291410
1358.817570,7698.141797,-3256.906145,-73391.948708
1358.820098,3404.947333,296.082377,-73085.510509
1358.822627,5773.606348,-1924.535449,-72932.291410
1358.825156,444.123565,-1480.411884,-72779.072310
1358.827685,4589.276840,1628.453072,-72472.634111
1358.830214,9918.759623,296.082377,-73085.510509
1358.832743,148.041188,-3256.906145,-73238.729609
1358.835271,-5477.523971,3256.906145,-74158.044206
1358.837800,-6809.894666,-888.247130,-72932.291410
1358.840329,-7105.977043,148.041188,-73238.729609
1358.842858,148.041188,592.164754,-74004.825107
1358.845387,1924.535449,-2368.659014,-74464.482406
1358.847916,1184.329507,2516.700203,-73391.948708
1358.850444,-888.247130,-148.041188,-72472.634111
1358.852973,-5181.441594,-2368.659014,-74770.920605
1358.855502,-1628.453072,1480.411884,-71859.757712
1358.858031,444.123565,-2220.617826,-74770.920605
1358.860560,1036.288319,-1184.329507,-72625.853210
1358.863089,148.041188,2516.700203,-73545.167808
1358.865617,-3552.988522,-2812.782580,-74770.920605
1358.868146,3404.947333,-148.041188,-71553.319513
1358.870675,1776.494261,592.164754,-71553.319513
1358.873204,-9178.553681,-5181.441594,-71246.881314
1358.875733,-2664.741391,4145.153275,-73085.510509
1358.878262,-7846.182985,-3404.947333,-73391.948708
1358.880790,-2220.617826,2516.700203,-74004.825107
1358.883319,3256.906145,0.000000,-74311.263306
1358.885848,2516.700203,-3701.029710,-73545.167808
1358.888377,1924.535449,1776.494261,-71859.757712
1358.890906,1924.535449,2072.576638,-72012.976812
1358.893449,-3849.070898,1184.329507,-72779.072310
1358.895993,7105.977043,-1332.370696,-74617.701505
1358.898536,8882.471304,2516.700203,-74464.482406
1358.901080,8586.388927,-6217.729913,-73085.510509
1358.903623,11547.212695,-2516.700203,-72012.976812
1358.906166,6809.894666,1332.370696,-71859.757712
1358.908710,10066.800811,-2516.700203,-72319.415011
1358.911253,6957.935855,-740.205942,-73545.167808
1358.913797,7698.141797,1480.411884,-73238.729609
1358.916340,3552.988522,-2960.823768,-73851.606007
1358.918884,9030.512492,740.205942,-71859.757712
1358.921427,11843.295072,444.123565,-72319.415011
1358.923971,18949.272115,-2664.741391,-74311.263306
1358.926514,2072.576638,-592.164754,-72932.291410
1358.929058,-9770.718434,2220.617826,-72319.415011
1358.931601,16728.654289,-2072.576638,-73238.729609
1358.934144,7550.100608,-1480.411884,-73698.386908
1358.936688,8734.430116,-148.041188,-73391.948708
1358.939231,10362.883188,-1184.329507,-74004.825107
1358.941775,4737.318029,740.205942,-72932.291410
1358.944318,9178.553681,2664.741391,-73085.510509
1358.946862,8438.347739,-3701.029710,-73238.729609
1358.949405,6809.894666,-2516.700203,-72472.634111
1358.951949,5033.400406,-1332.370696,-72012.976812
1358.954492,-296.082377,-592.164754,-72012.976812
1358.957036,6661.853478,1924.535449,-73085.510509
1358.959579,-2516.700203,-444.123565,-73238.729609
1358.962122,-3404.947333,2516.700203,-73391.948708
1358.964666,-2960.823768,-1332.370696,-73238.729609
1358.967209,-10066.800811,-740.205942,-73238.729609
1358.969753,-148.041188,740.205942,-73545.167808
1358.972296,-4885.359217,-4145.153275,-74158.044206
1358.974840,1924.535449,2960.823768,-74158.044206
1358.977383,148.041188,-3701.029710,-73238.729609
1358.979927,-2368.659014,2960.823768,-74158.044206
1358.982470,-3256.906145,-1480.411884,-71859.757712
1358.985013,-5921.647536,2368.659014,-72166.195912
1358.987557,15692.365970,-3108.864956,-75537.016103
1358.990100,2960.823768,-296.082377,-73238.729609
1358.992644,-18653.189738,5773.606348,-75690.235202
1358.995158,18061.024985,-11547.212695,-74464.482406
1358.997672,-9326.594869,11843.295072,-71706.538613
1359.000186,-11991.336260,-6217.729913,-71859.757712
1359.002701,-9622.677246,-6513.812290,-74464.482406
1359.005215,-3552.988522,6809.894666,-73545.167808
1359.007729,740.205942,-8142.265362,-74770.920605
1359.010243,1776.494261,3701.029710,-73545.167808
1359.012757,1776.494261,-1184.329507,-73085.510509
1359.015271,-1332.370696,2664.741391,-72166.195912
1359.017786,-592.164754,1480.411884,-72472.634111
1359.020300,4145.153275,-2516.700203,-73085.510509
1359.022814,6809.894666,2664.741391,-74004.825107
1359.025328,10807.006753,-6069.688724,-73698.386908
1359.027842,9326.594869,-3256.906145,-72472.634111
1359.030357,8142.265362,-2368.659014,-72779.072310
1359.032871,10362.883188,-3701.029710,-72012.976812
1359.035385,8142.265362,740.205942,-72625.853210
1359.037899,7994.224174,-1332.370696,-73238.729609
1359.040413,6217.729913,1332.370696,-74770.920605
1359.042927,444.123565,148.041188,-75690.235202
1359.045442,14656.077652,-1924.535449,-72472.634111
1359.047956,6513.812290,-1480.411884,-74004.825107
1359.050470,-4145.153275,444.123565,-73851.606007
1359.052984,2516.700203,296.082377,-74311.263306
1359.055498,-3849.070898,444.123565,-72779.072310
1359.058013,10658.965565,-1332.370696,-72625.853210
1359.060527,19985.560434,-1332.370696,-74311.263306
1359.063041,7402.059420,-2072.576638,-72779.072310
1359.065555,10955.047942,-1036.288319,-73391.948708
1359.068069,8290.306550,-5921.647536,-72319.415011
1359.070583,10955.047942,-1332.370696,-72472.634111
1359.073098,10955.047942,-740.205942,-72472.634111
1359.075612,1776.494261,-3404.947333,-72932.291410
1359.078126,4145.153275,148.041188,-72779.072310
1359.080640,5477.523971,-888.247130,-72779.072310
1359.083154,-1628.453072,1776.494261,-73698.386908
1359.085669,-1332.370696,592.164754,-73698.386908
1359.088183,-6661.853478,1184.329507,-73391.948708
1359.090697,-888.247130,444.123565,-73238.729609
1359.093211,-5181.441594,-1332.370696,-74158.044206
1359.095744,-2960.823768,444.123565,-74770.920605
1359.098276,3108.864956,-1776.494261,-73851.606007
1359.100809,-2664.741391,-1332.370696,-73085.510509
1359.103342,1332.370696,5329.482782,-71859.757712
1359.105874,-3404.947333,-5329.482782,-72472.634111
1359.108407,-9178.553681,3701.029710,-72012.976812
1359.110940,1036.288319,296.082377,-73698.386908
1359.113472,9474.636058,-4293.194464,-73851.606007
1359.116005,6365.771101,-592.164754,-73238.729609
1359.118538,-2368.659014,-592.164754,-73391.948708
1359.121070,-10214.842000,2072.576638,-73698.386908
1359.123603,-1776.494261,1924.535449,-71859.757712
1359.126136,-13323.706956,-3256.906145,-73238.729609
1359.128668,592.164754,3552.988522,-74004.825107
1359.131201,-4293.194464,-4293.194464,-74158.044206
1359.133734,-1332.370696,2368.659014,-74004.825107
1359.136266,4293.194464,-2960.823768,-73545.167808
1359.138799,-3256.906145,2516.700203,-72625.853210
1359.141332,1332.370696,-296.082377,-72166.195912
1359.143864,1036.288319,-2368.659014,-73391.948708
1359.146397,6661.853478,3404.947333,-74004.825107
1359.148930,11843.295072,-1776.494261,-73698.386908
1359.151462,8142.265362,-6957.935855,-72932.291410
1359.153995,11991.336260,-1924.535449,-71859.757712
1359.156528,7846.182985,148.041188,-72625.853210
1359.159060,9030.512492,-888.247130,-72779.072310
1359.161593,6661.853478,888.247130,-74004.825107
1359.164126,4589.276840,148.041188,-73851.606007
1359.166658,5921.647536,-1628.453072,-72166.195912
1359.169191,1776.494261,148.041188,-74311.263306
1359.171724,15248.242405,-296.082377,-73085.510509
1359.174256,6069.688724,-2368.659014,-72932.291410
1359.176789,-1776.494261,-592.164754,-72625.853210
1359.179322,592.164754,-444.123565,-72012.976812
1359.181854,9622.677246,1332.370696,-74004.825107
1359.184387,15988.448347,-2220.617826,-71706.538613
1359.186920,9326.594869,-444.123565,-72625.853210
1359.189452,13323.706956,2664.741391,-73545.167808
1359.191985,5329.482782,-2072.576638,-72166.195912
1359.194518,11695.253884,-1332.370696,-73238.729609
1359.197064,5921.647536,-2368.659014,-73698.386908
1359.199612,1776.494261,-4293.194464,-73238.729609
1359.202160,2664.741391,3701.029710,-72166.195912
1359.204707,5033.400406,-2812.782580,-74004.825107
1359.207255,-2664.741391,1036.288319,-73545.167808
1359.209803,-3849.070898,1628.453072,-74004.825107
1359.212350,-5329.482782,-1628.453072,-72932.291410
1359.214898,-7550.100608,1628.453072,-73851.606007
1359.217446,-296.082377,1480.411884,-74464.482406
1359.219993,-1628.453072,-3849.070898,-73698.386908
1359.222541,2368.659014,3701.029710,-72779.072310
1359.225089,-740.205942,-4441.235652,-71400.100414
1359.227636,1628.453072,6365.771101,-69867.909418
1359.230184,-3849.070898,-3849.070898,-72779.072310
1359.232732,4441.235652,3108.864956,-71859.757712
1359.235279,8882.471304,-4145.153275,-74004.825107
1359.237827,-3701.029710,-1480.411884,-75230.577904
1359.240375,-2220.617826,296.082377,-74158.044206
1359.242922,2072.576638,-1332.370696,-74924.139704
1359.245470,-12287.418637,3108.864956,-71706.538613
1359.248018,-7550.100608,-1924.535449,-73391.948708
1359.250565,-2072.576638,2072.576638,-73238.729609
1359.253113,-4145.153275,-3108.864956,-74464.482406
1359.255661,-296.082377,1480.411884,-74770.920605
1359.258208,592.164754,-3256.906145,-74158.044206
1359.260756,-592.164754,3701.029710,-72779.072310
1359.263303,740.205942,1036.288319,-71859.757712
1359.265851,2516.700203,-296.082377,-72319.415011
1359.268399,10066.800811,3404.947333,-74311.263306
1359.270946,5625.565159,-2072.576638,-74311.263306
1359.273494,10955.047942,-3108.864956,-72779.072310
1359.276042,11103.089130,296.082377,-72319.415011
1359.278589,7846.182985,-2516.700203,-72625.853210
1359.281137,9474.636058,-1332.370696,-72166.195912
1359.283685,8290.306550,-1776.494261,-73391.948708
1359.286232,4145.153275,-2072.576638,-74464.482406
1359.288780,4441.235652,-592.164754,-74770.920605
1359.291328,148.041188,-888.247130,-73238.729609
1359.293875,-8142.265362,3404.947333,-74158.044206
1359.296423,17024.736666,148.041188,-73238.729609
1359.298982,3997.112087,888.247130,-72319.415011
1359.301541,3701.029710,-1480.411884,-75230.577904
1359.304100,19689.478057,148.041188,-73545.167808
1359.306658,3849.070898,-2220.617826,-73698.386908
1359.309217,5033.400406,1776.494261,-74464.482406
1359.311776,9326.594869,-1480.411884,-72625.853210
1359.314335,14211.954086,-1628.453072,-72472.634111
1359.316894,12287.418637,-1628.453072,-72779.072310
1359.319452,7550.100608,-3256.906145,-72625.853210
1359.322011,592.164754,-1924.535449,-73085.510509
1359.324570,-1628.453072,1480.411884,-73085.510509
1359.327129,2664.741391,1036.288319,-73391.948708
1359.329688,2368.659014,-1480.411884,-73391.948708
1359.332246,-2664.741391,2812.782580,-73391.948708
1359.334805,-6661.853478,-1480.411884,-73085.510509
1359.337364,-10362.883188,444.123565,-74004.825107
1359.339923,-4441.235652,-296.082377,-74617.701505
1359.342482,888.247130,-2368.659014,-73391.948708
1359.345040,2072.576638,2516.700203,-73238.729609
1359.347599,1480.411884,-2516.700203,-71093.662214
1359.350158,740.205942,3701.029710,-70021.128517
1359.352717,4885.359217,-6069.688724,-72319.415011
1359.355276,-5329.482782,3701.029710,-72472.634111
1359.357834,-2516.700203,444.123565,-75537.016103
1359.360393,-444.123565,-3701.029710,-75537.016103
1359.362952,2516.700203,3404.947333,-72625.853210
1359.365511,-3849.070898,-2516.700203,-72166.195912
1359.368070,-5181.441594,2220.617826,-70787.224015
1359.370628,-6217.729913,-2812.782580,-72319.415011
1359.373187,-8882.471304,740.205942,-74158.044206
1359.375746,-444.123565,-1036.288319,-74924.139704
1359.378305,-740.205942,740.205942,-74158.044206
1359.380864,740.205942,1036.288319,-72932.291410
1359.383422,1924.535449,1480.411884,-73238.729609
1359.385981,2664.741391,-296.082377,-70940.443115
1359.388540,2368.659014,-1184.329507,-73085.510509
1359.391099,10955.047942,1036.288319,-74004.825107
1359.393658,8290.306550,-4441.235652,-74004.825107
1359.396216,10214.842000,-1480.411884,-72779.072310
1359.398775,6809.894666,-2072.576638,-71553.319513
1359.401343,6809.894666,-3701.029710,-72166.195912
1359.403911,9622.677246,-444.123565,-73851.606007
1359.406479,8586.388927,-888.247130,-73698.386908
1359.409047,10066.800811,148.041188,-71400.100414
1359.411615,740.205942,-296.082377,-74617.701505
1359.414183,1332.370696,2368.659014,-71400.100414
1359.416751,7550.100608,1332.370696,-73698.386908
1359.419319,10066.800811,-1480.411884,-75690.235202
1359.421887,444.123565,-1036.288319,-72166.195912
1359.424455,0.000000,888.247130,-76303.111601
1359.427023,20133.601622,-1480.411884,-74770.920605
1359.429591,3108.864956,-2072.576638,-72472.634111
1359.432159,14656.077652,1924.535449,-73698.386908
1359.434727,9030.512492,-2812.782580,-72166.195912
1359.437295,7846.182985,-296.082377,-73545.167808
1359.439863,9030.512492,592.164754,-72625.853210
1359.442431,148.041188,-3997.112087,-72779.072310
1359.444999,4145.153275,2072.576638,-72779.072310
1359.447567,5921.647536,148.041188,-73391.948708
1359.450135,-4737.318029,-2368.659014,-72625.853210
1359.452703,-2220.617826,3108.864956,-74004.825107
1359.455271,-8290.306550,-2368.659014,-73085.510509
1359.457839,-3404.947333,2220.617826,-74158.044206
1359.460407,1628.453072,1924.535449,-74004.825107
1359.462975,-2960.823768,-3849.070898,-73698.386908
1359.465543,1184.329507,740.205942,-73391.948708
1359.468111,-1184.329507,-1628.453072,-73545.167808
1359.470679,-1776.494261,4589.276840,-72012.976812
1359.473248,-4885.359217,-2664.741391,-72932.291410
1359.475816,8586.388927,444.123565,-74004.825107
1359.478384,6513.812290,-2664.741391,-74770.920605
1359.480952,1776.494261,-1628.453072,-73238.729609
1359.483520,-2516.700203,-1628.453072,-75537.016103
1359.486088,-5921.647536,296.082377,-74464.482406
1359.488656,-6513.812290,-444.123565,-72012.976812
1359.491224,-5477.523971,1332.370696,-73238.729609
1359.493792,-4293.194464,-4737.318029,-73851.606007
1359.496360,-7105.977043,1480.411884,-74770.920605
1359.498928,1332.370696,444.123565,-74004.825107
1359.501496,-1036.288319,-1184.329507,-73085.510509
1359.504071,2516.700203,4737.318029,-72625.853210
1359.506647,2220.617826,-1036.288319,-72625.853210
1359.509223,6365.771101,-2368.659014,-72625.853210
1359.511798,7698.141797,1776.494261,-74311.263306
1359.514374,6809.894666,-3997.112087,-73545.167808
1359.516949,12731.542202,1036.288319,-71553.319513
1359.519525,8290.306550,444.123565,-72012.976812
1359.522101,9622.677246,-4293.194464,-72779.072310
1359.524676,9474.636058,0.000000,-73238.729609
1359.527252,5625.565159,296.082377,-72932.291410
1359.529828,11695.253884,296.082377,-72012.976812
1359.532403,1332.370696,-888.247130,-74770.920605
1359.534979,16432.571912,-888.247130,-72625.853210
1359.537554,3849.070898,0.000000,-72932.291410
1359.540130,3256.906145,-2960.823768,-73851.606007
1359.542706,2072.576638,2072.576638,-72012.976812
1359.545281,10807.006753,-1628.453072,-73698.386908
1359.547857,14656.077652,-1480.411884,-72932.291410
1359.550433,14508.036463,2072.576638,-72319.415011
1359.553008,9326.594869,-6217.729913,-72932.291410
1359.555584,8734.430116,-444.123565,-73238.729609
1359.558160,14359.995275,-2516.700203,-71859.757712
1359.560735,6069.688724,-2960.823768,-72779.072310
1359.563311,3997.112087,-444.123565,-72779.072310
1359.565886,3849.070898,296.082377,-72779.072310
1359.568462,-3108.864956,2220.617826,-73391.948708
1359.571038,-2812.782580,-592.164754,-73545.167808
1359.573613,-4589.276840,2220.617826,-73851.606007
1359.576189,-2368.659014,-740.205942,-73391.948708
1359.578765,-5329.482782,0.000000,-73698.386908
1359.581340,-5181.441594,444.123565,-74464.482406
1359.583916,2516.700203,-1776.494261,-73238.729609
1359.586492,-5033.400406,2516.700203,-72012.976812
1359.589067,4145.153275,-2812.782580,-70174.347617
1359.591643,-1628.453072,3108.864956,-72625.853210
1359.594218,-1332.370696,-1628.453072,-72166.195912
1359.596794,5773.606348,-2812.782580,-73698.386908
1359.599370,-2368.659014,2220.617826,-75230.577904
1359.601945,-1184.329507,-1924.535449,-73545.167808
1359.604521,148.041188,444.123565,-74004.825107
1359.607101,-8734.430116,2516.700203,-70327.566716
1359.609682,-2960.823768,-444.123565,-73238.729609
1359.612262,-8734.430116,-1184.329507,-73085.510509
1359.614842,-5625.565159,740.205942,-75230.577904
1359.617422,888.247130,-592.164754,-73545.167808
1359.620003,-2220.617826,-2072.576638,-72779.072310
1359.622583,2664.741391,6069.688724,-73085.510509
1359.625163,2516.700203,-2960.823768,-71706.538613
1359.627744,2072.576638,148.041188,-73085.510509
1359.630324,13915.871710,296.082377,-74924.139704
1359.632904,6365.771101,-3256.906145,-73085.510509
1359.635484,10658.965565,-444.123565,-72012.976812
1359.638065,7994.224174,-3404.947333,-71859.757712
1359.640645,6365.771101,-3701.029710,-72625.853210
1359.643225,10955.047942,0.000000,-73545.167808
1359.645806,7550.100608,-2072.576638,-74311.263306
1359.648386,592.164754,-1924.535449,-76456.330700
1359.650966,5625.565159,-888.247130,-73238.729609
1359.653546,-7254.018232,-296.082377,-72932.291410
1359.656127,5033.400406,3404.947333,-72472.634111
1359.658707,-4885.359217,2664.741391,-73238.729609
1359.661287,13471.748144,-888.247130,-73851.606007
1359.663868,11251.130318,-296.082377,-75230.577904
1359.666448,12139.377449,-740.205942,-72472.634111
1359.669028,9474.636058,1332.370696,-72932.291410
1359.671608,4293.194464,-1628.453072,-72472.634111
1359.674189,13619.789333,-2072.576638,-72779.072310
1359.676769,11695.253884,-1332.370696,-72472.634111
1359.679349,8586.388927,-2664.741391,-73238.729609
1359.681930,5033.400406,1480.411884,-73545.167808
1359.684510,-296.082377,148.041188,-73851.606007
1359.687090,-3997.112087,-1184.329507,-73545.167808
1359.689670,-2960.823768,2960.823768,-72932.291410
1359.692251,-5625.565159,-2072.576638,-73851.606007
1359.694831,-3404.947333,296.082377,-74311.263306
1359.697411,-3404.947333,-1036.288319,-74004.825107
1359.699992,-1480.411884,-2220.617826,-73391.948708
1359.702572,1776.494261,-1036.288319,-73238.729609
1359.705152,-3552.988522,1036.288319,-72472.634111
1359.707732,740.205942,-1924.535449,-71400.100414
1359.710317,888.247130,1332.370696,-73698.386908
1359.712901,5329.482782,-6365.771101,-74464.482406
1359.715485,-9622.677246,3256.906145,-72625.853210
1359.718069,4441.235652,1924.535449,-72779.072310
1359.720653,9918.759623,-7402.059420,-73085.510509
1359.723237,-7846.182985,2960.823768,-70327.566716
1359.725821,-11843.295072,-888.247130,-73545.167808
1359.728405,-3997.112087,444.123565,-73545.167808
1359.730990,-5921.647536,-592.164754,-74770.920605
1359.733574,1036.288319,-2368.659014,-74464.482406
1359.736158,-888.247130,1332.370696,-74004.825107
1359.738742,-2072.576638,3108.864956,-71706.538613
1359.741326,-3256.906145,-888.247130,-73238.729609
1359.743910,888.247130,3108.864956,-73085.510509
1359.746494,14359.995275,-1924.535449,-74770.920605
1359.749078,11695.253884,592.164754,-73698.386908
1359.751662,11695.253884,-5477.523971,-72472.634111
1359.754247,6365.771101,-444.123565,-72319.415011
1359.756831,7105.977043,148.041188,-71553.319513
1359.759415,7698.141797,-1332.370696,-72932.291410
1359.761999,10214.842000,-444.123565,-73085.510509
1359.764583,6513.812290,-148.041188,-74464.482406
1359.767167,7846.182985,-1480.411884,-73391.948708
1359.769751,1776.494261,-1924.535449,-74770.920605
1359.772335,296.082377,3849.070898,-71859.757712
1359.774920,2220.617826,444.123565,-73391.948708
1359.777504,-1184.329507,-444.123565,-73085.510509
1359.780088,2516.700203,2960.823768,-75690.235202
1359.782672,20577.725188,-4885.359217,-73085.510509
1359.785256,11547.212695,1480.411884,-73238.729609
1359.787840,8882.471304,-3849.070898,-72166.195912
1359.790424,6513.812290,-740.205942,-72625.853210
1359.793008,14508.036463,444.123565,-71706.538613
1359.795592,10955.047942,-4145.153275,-72472.634111
1359.798177,3404.947333,-1776.494261,-72625.853210
1359.800761,3997.112087,-2220.617826,-74158.044206
1359.803345,-3701.029710,3404.947333,-73238.729609
1359.805929,-7698.141797,2072.576638,-72625.853210
1359.808513,-3849.070898,-1924.535449,-73698.386908
1359.811097,-2220.617826,2960.823768,-73851.606007
1359.813684,-5625.565159,-3701.029710,-74924.139704
1359.816271,-1628.453072,888.247130,-73698.386908
1359.818859,-148.041188,-3108.864956,-73545.167808
1359.821446,-6957.935855,1184.329507,-73698.386908
1359.824033,-2812.782580,1776.494261,-74311.263306
1359.826620,-3849.070898,-3404.947333,-72472.634111
1359.829207,-11843.295072,4737.318029,-74158.044206
1359.831794,11103.089130,-5921.647536,-74464.482406
1359.834381,1628.453072,-888.247130,-73085.510509
1359.836969,-4885.359217,444.123565,-74311.263306
1359.839556,296.082377,-4293.194464,-73238.729609
1359.842143,-2812.782580,1332.370696,-70634.004916
1359.844730,-11251.130318,-1628.453072,-73698.386908
1359.847317,-2960.823768,-740.205942,-74004.825107
1359.849904,-9474.636058,-592.164754,-74311.263306
1359.852491,7402.059420,-1184.329507,-73698.386908
1359.855079,-148.041188,3404.947333,-72319.415011
1359.857666,-3849.070898,0.000000,-72472.634111
1359.860253,5477.523971,1332.370696,-73238.729609
1359.862840,8734.430116,2516.700203,-73545.167808
1359.865427,10658.965565,-6069.688724,-74617.701505
1359.868014,12435.459826,1332.370696,-72932.291410
1359.870601,9326.594869,-4885.359217,-71400.100414
1359.873189,8734.430116,-1924.535449,-70634.004916
1359.875776,5477.523971,296.082377,-73085.510509
1359.878363,10214.842000,-2368.659014,-74158.044206
1359.880950,6365.771101,2368.659014,-73698.386908
1359.883537,1184.329507,-1924.535449,-74617.701505
1359.886124,-6957.935855,1184.329507,-74617.701505
1359.888711,19393.395680,1332.370696,-72932.291410
1359.891299,-5921.647536,-2072.576638,-71553.319513
1359.893886,2812.782580,-888.247130,-74617.701505
1359.896473,22206.178260,-444.123565,-74158.044206
1359.899060,1332.370696,-3108.864956,-72932.291410
1359.901647,8142.265362,-2368.659014,-73391.948708
1359.904234,10955.047942,2664.741391,-71859.757712
1359.906821,6513.812290,-3404.947333,-73085.510509
1359.909409,14063.912898,-1036.288319,-71706.538613
1359.911996,4589.276840,-4441.235652,-73238.729609
1359.914583,4441.235652,2072.576638,-73085.510509
1359.917171,4589.276840,-1776.494261,-73085.510509
1359.919760,-6069.688724,296.082377,-73238.729609
1359.922349,-6217.729913,2812.782580,-73391.948708
1359.924937,-6365.771101,-2812.782580,-72932.291410
1359.927526,-6957.935855,2812.782580,-74158.044206
1359.930114,-444.123565,1924.535449,-75230.577904
1359.932703,-1628.453072,-3256.906145,-73391.948708
1359.935292,4145.153275,2072.576638,-73698.386908
1359.937880,-4441.235652,-148.041188,-71706.538613
1359.940469,-5773.606348,1036.288319,-72625.853210
1359.943057,-8290.306550,2516.700203,-73851.606007
1359.945646,1036.288319,-148.041188,-73851.606007
1359.948235,5477.523971,-1776.494261,-74924.139704
1359.950823,2664.741391,2072.576638,-73698.386908
1359.953412,-1036.288319,-296.082377,-71400.100414
1359.956000,-8734.430116,-2664.741391,-72472.634111
1359.958589,-5181.441594,3849.070898,-71246.881314
1359.961178,-1776.494261,-2664.741391,-73698.386908
1359.963766,-3701.029710,-1332.370696,-74924.139704
1359.966355,296.082377,1036.288319,-75537.016103
1359.968943,-5625.565159,-888.247130,-73545.167808
1359.971532,-1332.370696,5181.441594,-71553.319513
1359.974121,4737.318029,-1924.535449,-72166.195912
1359.976709,11695.253884,444.123565,-72779.072310
1359.979298,11695.253884,-2220.617826,-75077.358804
1359.981886,13767.830521,-2664.741391,-73238.729609
1359.984475,5477.523971,592.164754,-71553.319513
1359.987064,8142.265362,-740.205942,-72012.976812
1359.989652,7846.182985,-3552.988522,-72319.415011
1359.992241,11547.212695,444.123565,-73545.167808
1359.994829,9178.553681,-2072.576638,-71859.757712
1359.997418,3552.988522,-888.247130,-74770.920605
1360.000007,4441.235652,2072.576638,-75383.797003
1360.002595,-1480.411884,2072.576638,-71859.757712
1360.005184,6513.812290,-1924.535449,-74311.263306
1360.007772,6957.935855,592.164754,-70787.224015
1360.010361,-740.205942,592.164754,-74464.482406
1360.012950,24130.713709,-2220.617826,-72932.291410
1360.015538,8290.306550,-1480.411884,-72472.634111
1360.018127,13619.789333,2664.741391,-72932.291410
1360.020717,12879.583391,-3849.070898,-71859.757712
1360.023306,2812.782580,-444.123565,-73391.948708
1360.025896,9326.594869,-2072.576638,-72625.853210
1360.028486,2812.782580,-444.123565,-73238.729609
1360.031076,1628.453072,740.205942,-73391.948708
1360.033666,-2664.741391,-1480.411884,-74004.825107
1360.036255,-5181.441594,2220.617826,-72932.291410
1360.038845,-6661.853478,-1332.370696,-73698.386908
1360.041435,-7402.059420,-444.123565,-74464.482406
1360.044025,-1776.494261,1776.494261,-74924.139704
1360.046614,-444.123565,-1480.411884,-74004.825107
1360.049204,2812.782580,296.082377,-73545.167808
1360.051794,-5477.523971,444.123565,-74311.263306
1360.054384,1776.494261,888.247130,-71246.881314
1360.056974,5033.400406,-3701.029710,-71553.319513
1360.059563,-7254.018232,1036.288319,-73238.729609
1360.062153,2812.782580,-1480.411884,-73545.167808
1360.064743,3552.988522,444.123565,-73391.948708
1360.067333,296.082377,0.000000,-72625.853210
1360.069922,-8142.265362,-148.041188,-72012.976812
1360.072512,-12139.377449,-592.164754,-72319.415011
1360.075102,-2812.782580,-592.164754,-74004.825107
1360.077692,-3256.906145,-3997.112087,-74924.139704
1360.080282,3108.864956,1184.329507,-74617.701505
1360.082871,444.123565,888.247130,-72779.072310
1360.085461,-5625.565159,740.205942,-72472.634111
1360.088051,5181.441594,3701.029710,-72625.853210
1360.090641,11843.295072,-1628.453072,-73391.948708
1360.093231,13619.789333,-1776.494261,-74464.482406
1360.095820,13323.706956,-2664.741391,-73545.167808
1360.098410,7402.059420,-888.247130,-72319.415011
1360.101000,6957.935855,-740.205942,-71859.757712
1360.103555,4885.359217,-444.123565,-72625.853210
1360.106109,8142.265362,-2812.782580,-74770.920605
1360.108664,5477.523971,-592.164754,-74924.139704
1360.111218,1628.453072,-2812.782580,-74158.044206
1360.113773,-9326.594869,1184.329507,-74924.139704
1360.116328,31384.731941,-592.164754,-72625.853210
1360.118882,-2368.659014,-3552.988522,-73085.510509
1360.121437,-15396.283594,1776.494261,-72932.291410
1360.123991,22058.137072,888.247130,-74158.044206
1360.126546,14656.077652,-3849.070898,-73851.606007
1360.129101,7402.059420,592.164754,-73085.510509
1360.131655,17172.777854,-6513.812290,-72625.853210
1360.134210,6217.729913,1628.453072,-71246.881314
1360.136765,13471.748144,-2664.741391,-72932.291410
1360.139319,2516.700203,-1628.453072,-72779.072310
1360.141874,-444.123565,-1184.329507,-73851.606007
1360.144428,2072.576638,0.000000,-74004.825107
1360.146983,-7846.182985,2368.659014,-73851.606007
1360.149538,-4589.276840,444.123565,-73391.948708
1360.152092,-5773.606348,-296.082377,-73545.167808
1360.154647,-10510.924376,148.041188,-74464.482406
1360.157202,-1036.288319,2812.782580,-75077.358804
1360.159756,1480.411884,-1776.494261,-73391.948708
1360.162311,1332.370696,-1776.494261,-73851.606007
1360.164865,-1776.494261,4441.235652,-72625.853210
1360.167420,-2812.782580,-1776.494261,-71093.662214
1360.169975,5033.400406,-3997.112087,-72625.853210
1360.172529,-444.123565,2516.700203,-72932.291410
1360.175084,7105.977043,-3997.112087,-74464.482406
1360.177639,-3997.112087,-1036.288319,-75537.016103
1360.180193,-4737.318029,-1332.370696,-72625.853210
1360.182748,-9770.718434,-2072.576638,-72319.415011
1360.185302,-8142.265362,888.247130,-73698.386908
1360.187857,-592.164754,-2960.823768,-75230.577904
1360.190412,-2960.823768,-1036.288319,-75077.358804
1360.192966,-1628.453072,2072.576638,-74311.263306
1360.195521,-2812.782580,592.164754,-71859.757712
1360.198076,3849.070898,1628.453072,-72779.072310
1360.200630,8438.347739,1184.329507,-73085.510509
1360.203185,14656.077652,-3256.906145,-74311.263306
1360.205747,16136.489536,-3849.070898,-72472.634111
1360.208309,6069.688724,1184.329507,-71553.319513
1360.210871,9326.594869,-1332.370696,-71859.757712
1360.213433,5329.482782,-5033.400406,-72625.853210
1360.215996,11251.130318,1332.370696,-73238.729609
1360.218558,5329.482782,-4145.153275,-75843.454302
1360.221120,6809.894666,-4145.153275,-72625.853210
1360.223682,17468.860231,-1184.329507,-72779.072310
1360.226244,-444.123565,-1184.329507,-72472.634111
1360.228807,6069.688724,3701.029710,-72012.976812
1360.231369,12583.501014,-2368.659014,-75230.577904
1360.233931,296.082377,-1628.453072,-73545.167808
1360.236493,13175.665768,3701.029710,-76303.111601
1360.239056,12139.377449,-6513.812290,-72625.853210
1360.241618,6365.771101,-1924.535449,-70940.443115
1360.244180,18209.066173,296.082377,-73085.510509
1360.246742,5329.482782,-2072.576638,-71859.757712
1360.249305,4293.194464,-3849.070898,-72472.634111
1360.251867,5033.400406,2516.700203,-73391.948708
1360.254429,-3552.988522,-1036.288319,-74464.482406
1360.256991,-2960.823768,592.164754,-74004.825107
1360.259553,-6809.894666,-444.123565,-73238.729609
1360.262116,-4885.359217,1036.288319,-73238.729609
1360.264678,-3849.070898,444.123565,-74004.825107
1360.267240,-5625.565159,-1036.288319,-74158.044206
1360.269802,148.041188,1924.535449,-74464.482406
1360.272365,1628.453072,888.247130,-70634.004916
1360.274927,7698.141797,-444.123565,-71093.662214
1360.277489,2368.659014,148.041188,-71093.662214
1360.280051,-9178.553681,148.041188,-72779.072310
1360.282613,-3849.070898,888.247130,-73391.948708
1360.285176,6217.729913,-3108.864956,-73851.606007
1360.287738,-2812.782580,1776.494261,-75996.673402
1360.290300,-8438.347739,-1332.370696,-72472.634111
1360.292862,-11695.253884,888.247130,-72779.072310
1360.295425,-7698.141797,-1184.329507,-72779.072310
1360.297987,-1036.288319,-148.041188,-75230.577904
1360.300549,2368.659014,-444.123565,-74617.701505
1360.303111,1776.494261,4293.194464,-73391.948708
1360.305673,-5329.482782,-444.123565,-72625.853210
1360.308206,1628.453072,2812.782580,-72625.853210
1360.310739,12731.542202,4293.194464,-72779.072310
1360.313271,10658.965565,-7105.977043,-74464.482406
1360.315804,15840.407159,-740.205942,-72472.634111
1360.318337,12583.501014,-148.041188,-71553.319513
1360.320869,8438.347739,-2368.659014,-71859.757712
1360.323402,5773.606348,-296.082377,-72319.415011
1360.325935,7254.018232,-1332.370696,-73085.510509
1360.328467,10807.006753,-444.123565,-72472.634111
1360.331000,10214.842000,-3552.988522,-75230.577904
1360.333532,-7698.141797,888.247130,-71553.319513
1360.336065,-444.123565,4145.153275,-75843.454302
1360.338598,19689.478057,444.123565,-75077.358804
1360.341130,9326.594869,-5921.647536,-69867.909418
1360.343663,-740.205942,4145.153275,-75077.358804
1360.346196,21465.972318,-5477.523971,-73545.167808
1360.348728,7698.141797,2516.700203,-72166.195912
1360.351261,19985.560434,-2220.617826,-72166.195912
1360.353793,740.205942,-740.205942,-71706.538613
1360.356326,6513.812290,-2220.617826,-72932.291410
1360.358859,6957.935855,-888.247130,-73238.729609
1360.361391,1184.329507,296.082377,-74004.825107
1360.363924,-3552.988522,-3552.988522,-74770.920605
1360.366457,-6809.894666,4293.194464,-74158.044206
1360.368989,-7402.059420,-2516.700203,-73085.510509
1360.371522,-6957.935855,1776.494261,-74004.825107
1360.374054,-3552.988522,-444.123565,-74158.044206
1360.376587,1036.288319,-4589.276840,-73698.386908
1360.379120,1628.453072,-2220.617826,-72319.415011
1360.381652,2220.617826,3404.947333,-70787.224015
1360.384185,0.000000,-2220.617826,-72625.853210
1360.386718,1628.453072,888.247130,-71706.538613
1360.389250,-1776.494261,148.041188,-73545.167808
1360.391783,4293.194464,-2664.741391,-74617.701505
1360.394316,-1924.535449,1776.494261,-74158.044206
1360.396848,-1776.494261,-2072.576638,-71859.757712
1360.399381,-11991.336260,-1332.370696,-71553.319513
1360.401913,-9918.759623,1184.329507,-73851.606007
1360.404446,-2516.700203,-2072.576638,-74924.139704
1360.406979,148.041188,-888.247130,-74770.920605
1360.409523,-2368.659014,-148.041188,-74617.701505
1360.412068,-4145.153275,2072.576638,-72319.415011
1360.414612,5033.400406,1776.494261,-72166.195912
1360.417157,13323.706956,-592.164754,-73085.510509
1360.419701,9918.759623,-592.164754,-73085.510509
1360.422246,17468.860231,-3849.070898,-72779.072310
1360.424790,9918.759623,444.123565,-71706.538613
1360.427335,7105.977043,0.000000,-71553.319513
1360.429879,5921.647536,-4293.194464,-72319.415011
1360.432424,10510.924376,1776.494261,-72779.072310
1360.434968,8586.388927,-2516.700203,-72625.853210
1360.437512,-1776.494261,-2664.741391,-73391.948708
1360.440057,8290.306550,1924.535449,-74158.044206
1360.442601,10807.006753,-1332.370696,-72012.976812
1360.445146,-7550.100608,1036.288319,-72625.853210
1360.447690,16432.571912,0.000000,-72472.634111
1360.450235,10658.965565,-2072.576638,-74311.263306
1360.452779,7105.977043,-2664.741391,-73545.167808
1360.455324,16876.695478,3552.988522,-73391.948708
1360.457868,9326.594869,-1924.535449,-71246.881314
1360.460413,10066.800811,-1924.535449,-71246.881314
1360.462957,7846.182985,-444.123565,-71400.100414
1360.465502,-444.123565,-2664.741391,-72779.072310
1360.468046,6661.853478,1332.370696,-74770.920605
1360.470591,-3108.864956,-592.164754,-73698.386908
1360.473135,-6661.853478,148.041188,-74464.482406
1360.475680,-5329.482782,-2812.782580,-73698.386908
1360.478224,-12287.418637,2516.700203,-73851.606007
1360.480769,-2368.659014,888.247130,-74311.263306
1360.483313,-148.041188,-5625.565159,-73698.386908
1360.485858,3552.988522,4145.153275,-72932.291410
1360.488402,-1332.370696,-1036.288319,-72932.291410
1360.490947,1628.453072,740.205942,-71093.662214
1360.493491,-8438.347739,4737.318029,-70480.785816
1360.496036,-11399.171507,296.082377,-75843.454302
1360.498580,5773.606348,-3849.070898,-74924.139704
1360.501125,-6661.853478,2072.576638,-74158.044206
1360.503669,-10510.924376,296.082377,-73698.386908
1360.506213,-4145.153275,-592.164754,-73085.510509
1360.508758,-12583.501014,-1924.535449,-72166.195912
1360.511312,-2516.700203,1184.329507,-74617.701505
1360.513867,-2220.617826,-1184.329507,-74464.482406
1360.516421,-2220.617826,5181.441594,-74158.044206
1360.518976,1480.411884,-2220.617826,-71859.757712
1360.521530,3997.112087,2220.617826,-73238.729609
1360.524085,11547.212695,2368.659014,-72472.634111
1360.526639,11103.089130,-5625.565159,-72779.072310
1360.529193,15840.407159,-444.123565,-72166.195912
1360.531748,12731.542202,-1036.288319,-72166.195912
1360.534302,7402.059420,-1036.288319,-71859.757712
1360.536857,7994.224174,-888.247130,-73085.510509
1360.539411,5773.606348,-1480.411884,-73698.386908
1360.541965,1332.370696,-296.082377,-75537.016103
1360.544520,4441.235652,-3552.988522,-72779.072310
1360.547074,22354.219448,1924.535449,-73698.386908
1360.549629,-2812.782580,-296.082377,-73545.167808
1360.552183,9178.553681,-444.123565,-74004.825107
1360.554738,21465.972318,-1036.288319,-72779.072310
1360.557292,8438.347739,-2812.782580,-71400.100414
1360.559846,17764.942608,1628.453072,-74464.482406
1360.562401,4737.318029,-2960.823768,-73085.510509
1360.564955,13767.830521,1036.288319,-72319.415011
1360.567510,10955.047942,-1036.288319,-70940.443115
1360.570064,1332.370696,-2516.700203,-72166.195912
1360.572619,6069.688724,1332.370696,-73085.510509
1360.575173,-4737.318029,4145.153275,-75077.358804
1360.577727,-3701.029710,-1480.411884,-72779.072310
1360.580282,-6809.894666,-296.082377,-74311.263306
1360.582836,-6365.771101,2072.576638,-73545.167808
1360.585391,-5033.400406,-2664.741391,-74770.920605
1360.587945,-4885.359217,1332.370696,-74464.482406
1360.590500,-148.041188,-148.041188,-73238.729609
1360.593054,1628.453072,-592.164754,-70940.443115
1360.595608,1332.370696,1332.370696,-72932.291410
1360.598163,-888.247130,-1036.288319,-71706.538613
1360.600717,-2960.823768,3997.112087,-73851.606007
1360.603272,-592.164754,-3701.029710,-74617.701505
1360.605826,2072.576638,2072.576638,-72166.195912
1360.608380,-2812.782580,-1184.329507,-73391.948708
1360.610935,-9474.636058,-1776.494261,-72319.415011
1360.613498,-11695.253884,-592.164754,-73085.510509
1360.616060,-6513.812290,148.041188,-74464.482406
1360.618623,1184.329507,-1480.411884,-74770.920605
1360.621186,-1776.494261,1480.411884,-74770.920605
1360.623749,-3404.947333,-592.164754,-73238.729609
1360.626311,6069.688724,2516.700203,-72012.976812
1360.628874,10807.006753,1776.494261,-73391.948708
1360.631437,14359.995275,-2516.700203,-72472.634111
1360.634000,16432.571912,-2812.782580,-71859.757712
1360.636562,11399.171507,-1184.329507,-72166.195912
1360.639125,8290.306550,1628.453072,-72319.415011
1360.641688,2812.782580,-4441.235652,-73238.729609
1360.644250,10955.047942,2960.823768,-72932.291410
1360.646813,3997.112087,-2516.700203,-74770.920605
1360.649376,3701.029710,-3404.947333,-74004.825107
1360.651939,1332.370696,3256.906145,-73851.606007
1360.654501,4737.318029,-444.123565,-74158.044206
1360.657064,3108.864956,-1332.370696,-71706.538613
1360.659627,4293.194464,1480.411884,-73391.948708
1360.662190,20873.807564,-2960.823768,-72625.853210
1360.664752,13175.665768,592.164754,-73238.729609
1360.667315,13027.624579,-2812.782580,-72932.291410
1360.669878,10066.800811,-444.123565,-71553.319513
1360.672441,12287.418637,296.082377,-70174.347617
1360.675003,6661.853478,-888.247130,-71859.757712
1360.677566,3552.988522,-148.041188,-73698.386908
1360.680129,-3552.988522,740.205942,-74617.701505
1360.682692,-11843.295072,2368.659014,-74464.482406
1360.685254,-3108.864956,-2368.659014,-74464.482406
1360.687817,-5181.441594,1184.329507,-74004.825107
1360.690380,-7254.018232,-1480.411884,-74770.920605
1360.692942,-6365.771101,2368.659014,-73698.386908
1360.695505,-1924.535449,1924.535449,-74464.482406
1360.698068,-888.247130,-148.041188,-75230.577904
1360.700631,-2072.576638,148.041188,-71706.538613
1360.703193,-7994.224174,4737.318029,-72012.976812
1360.705756,8142.265362,-4145.153275,-71553.319513
1360.708319,148.041188,-1036.288319,-73391.948708
1360.710882,-5773.606348,1332.370696,-76303.111601
1360.713444,2812.782580,-148.041188,-73698.386908
1360.716013,-3997.112087,-148.041188,-72625.853210
1360.718582,-13323.706956,-592.164754,-72932.291410
1360.721150,-5033.400406,-1036.288319,-74311.263306
1360.723719,-6217.729913,-888.247130,-74924.139704
1360.726287,2516.700203,2072.576638,-74924.139704
1360.728856,-1628.453072,-1480.411884,-73698.386908
1360.731425,4885.359217,1776.494261,-72625.853210
1360.733993,13027.624579,4293.194464,-72319.415011
1360.736562,9474.636058,-6217.729913,-72166.195912
1360.739131,15248.242405,-3997.112087,-72625.853210
1360.741699,11991.336260,1480.411884,-71553.319513
1360.744268,8586.388927,-1184.329507,-71400.100414
1360.746836,5773.606348,-1924.535449,-73698.386908
1360.749405,7105.977043,1776.494261,-72166.195912
1360.751974,1480.411884,-444.123565,-75230.577904
1360.754542,-6069.688724,-2368.659014,-73851.606007
1360.757111,1184.329507,3552.988522,-73391.948708
1360.759680,3108.864956,1184.329507,-73085.510509
1360.762248,10658.965565,-2960.823768,-72625.853210
1360.764817,13471.748144,1924.535449,-72779.072310
1360.767385,14063.912898,-6661.853478,-72319.415011
1360.769954,12879.583391,-148.041188,-74004.825107
1360.772523,10658.965565,2220.617826,-71553.319513
1360.775091,11843.295072,-2960.823768,-71246.881314
1360.777660,4441.235652,296.082377,-71553.319513
1360.780229,4293.194464,740.205942,-72472.634111
1360.782797,4293.194464,-444.123565,-74158.044206
1360.785366,-3404.947333,-1332.370696,-74311.263306
1360.787935,-6957.935855,2368.659014,-74464.482406
1360.790503,-10807.006753,-1332.370696,-73545.167808
1360.793072,-9326.594869,1480.411884,-73698.386908
1360.795640,-2812.782580,1036.288319,-74004.825107
1360.798209,2368.659014,-4885.359217,-73851.606007
1360.800778,5181.441594,-1480.411884,-71093.662214
1360.803346,-444.123565,2664.741391,-72319.415011
1360.805915,-5773.606348,-3849.070898,-72472.634111
1360.808484,-5773.606348,4589.276840,-71553.319513
1360.811052,13175.665768,-4293.194464,-74924.139704
1360.813621,-5477.523971,-2072.576638,-75690.235202
1360.816189,-10214.842000,2072.576638,-74924.139704
1360.818763,1924.535449,-3404.947333,-75077.358804
1360.821336,-21762.054695,4441.235652,-70787.224015
1360.823910,2960.823768,-888.247130,-74617.701505
1360.826483,-3701.029710,-2072.576638,-74004.825107
1360.829057,-8734.430116,3997.112087,-75690.235202
1360.831630,444.123565,-2812.782580,-73851.606007
1360.834203,2664.741391,4293.194464,-72319.415011
1360.836777,11843.295072,-592.164754,-75230.577904
1360.839350,15248.242405,-2072.576638,-72625.853210
1360.841924,10955.047942,-3701.029710,-71859.757712
1360.844497,11399.171507,444.123565,-71706.538613
1360.847071,8734.430116,0.000000,-72319.415011
1360.849644,10214.842000,-5477.523971,-72472.634111
1360.852218,8586.388927,4441.235652,-75230.577904
1360.854791,5625.565159,-4145.153275,-73391.948708
1360.857364,11103.089130,-3997.112087,-74770.920605
1360.859938,1332.370696,1332.370696,-73851.606007
1360.862511,1924.535449,-148.041188,-72779.072310
1360.865085,2516.700203,148.041188,-72932.291410
1360.867658,5773.606348,2960.823768,-74617.701505
1360.870232,15692.365970,-6217.729913,-72166.195912
1360.872805,16876.695478,-2664.741391,-73851.606007
1360.875378,14952.160028,888.247130,-73085.510509
1360.877952,9622.677246,-3256.906145,-71553.319513
1360.880525,5921.647536,-148.041188,-71859.757712
1360.883099,6513.812290,-1036.288319,-71400.100414
1360.885672,4293.194464,-1332.370696,-73238.729609
1360.888246,-3849.070898,-1628.453072,-74464.482406
1360.890819,-7846.182985,1332.370696,-74004.825107
1360.893392,-11251.130318,-148.041188,-74158.044206
1360.895966,-8734.430116,1776.494261,-74770.920605
1360.898539,-1628.453072,-2664.741391,-74311.263306
1360.901113,444.123565,-5921.647536,-74158.044206
1360.903686,-148.041188,296.082377,-74464.482406
1360.906260,-888.247130,2516.700203,-73238.729609
1360.908833,1480.411884,-1776.494261,-71093.662214
1360.911407,5033.400406,148.041188,-72932.291410
1360.913980,-7698.141797,1184.329507,-72779.072310
1360.916553,4293.194464,-2664.741391,-74464.482406
1360.919127,-740.205942,3404.947333,-74464.482406
1360.921704,-10510.924376,-1480.411884,-72319.415011
1360.924282,-9622.677246,2812.782580,-73391.948708
1360.926860,-7698.141797,-1184.329507,-72472.634111
1360.929437,-3849.070898,-4589.276840,-75230.577904
1360.932015,2960.823768,1628.453072,-74004.825107
1360.934593,-5921.647536,1480.411884,-74004.825107
1360.937170,4589.276840,1628.453072,-73391.948708
1360.939748,9474.636058,5477.523971,-72166.195912
1360.942325,13027.624579,-4885.359217,-72625.853210
1360.944903,18505.148550,-2368.659014,-70787.224015
1360.947481,10658.965565,1184.329507,-71093.662214
1360.950058,8438.347739,-2368.659014,-71706.538613
1360.952636,3256.906145,-4885.359217,-72932.291410
1360.955213,3849.070898,5181.441594,-74617.701505
1360.957791,10362.883188,-4885.359217,-74617.701505
1360.960369,0.000000,-2960.823768,-75230.577904
1360.962946,-2072.576638,4885.359217,-73391.948708
1360.965524,16432.571912,-1628.453072,-74004.825107
1360.968101,3552.988522,-4441.235652,-74770.920605
1360.970679,1628.453072,1628.453072,-73851.606007
1360.973257,19837.519246,-296.082377,-73391.948708
1360.975834,15692.365970,-5477.523971,-72932.291410
1360.978412,13471.748144,3108.864956,-72166.195912
1360.980989,12435.459826,-4737.318029,-72779.072310
1360.983567,-148.041188,-1184.329507,-71246.881314
1360.986145,6957.935855,444.123565,-71706.538613
1360.988722,3701.029710,-1628.453072,-72779.072310
1360.991300,444.123565,-888.247130,-75077.358804
1360.993878,-3404.947333,-592.164754,-74158.044206
1360.996455,-14508.036463,1332.370696,-74004.825107
1360.999033,-11843.295072,0.000000,-74464.482406
1361.001610,296.082377,592.164754,-73698.386908
1361.004188,3552.988522,-4885.359217,-73238.729609
1361.006766,1924.535449,-444.123565,-72625.853210
1361.009343,-148.041188,3701.029710,-72472.634111
1361.011921,888.247130,1480.411884,-71400.100414
1361.014498,8438.347739,-444.123565,-70940.443115
1361.017076,-1776.494261,0.000000,-72012.976812
1361.019654,740.205942,-3108.864956,-74158.044206
1361.022231,-3108.864956,-444.123565,-73391.948708
1361.024811,-4737.318029,592.164754,-73238.729609
1361.027391,-11251.130318,-4145.153275,-73238.729609
1361.029971,-7550.100608,3701.029710,-73851.606007
1361.032551,-7402.059420,0.000000,-74617.701505
1361.035131,-1776.494261,2220.617826,-74770.920605
1361.037710,2960.823768,-1036.288319,-73391.948708
1361.040290,11103.089130,296.082377,-73085.510509
1361.042870,10066.800811,888.247130,-73238.729609
1361.045450,9326.594869,-3404.947333,-71400.100414
1361.048030,13915.871710,-2072.576638,-71706.538613
1361.050610,15840.407159,-2960.823768,-71553.319513
1361.053190,10955.047942,-148.041188,-72012.976812
1361.055769,8734.430116,-740.205942,-72779.072310
1361.058349,7254.018232,-1628.453072,-72779.072310
1361.060929,7254.018232,-1332.370696,-75996.673402
1361.063509,296.082377,-2664.741391,-73085.510509
1361.066089,-4293.194464,1924.535449,-75996.673402
1361.068669,26795.455100,-888.247130,-72472.634111
1361.071249,-2516.700203,-4589.276840,-72166.195912
1361.073829,3552.988522,-2220.617826,-73545.167808
1361.076408,22502.260637,-2072.576638,-73391.948708
1361.078988,5033.400406,1332.370696,-72319.415011
1361.081568,18949.272115,-4441.235652,-71553.319513
1361.084148,7550.100608,2368.659014,-71859.757712
1361.086728,2960.823768,-4293.194464,-71246.881314
1361.089308,9178.553681,4441.235652,-72625.853210
1361.091888,-5477.523971,-1924.535449,-73698.386908
1361.094467,-9918.759623,-296.082377,-75996.673402
1361.097047,-11103.089130,-888.247130,-74004.825107
1361.099627,-7550.100608,1776.494261,-73851.606007
1361.102207,296.082377,-2664.741391,-75383.797003
1361.104787,-3256.906145,-1036.288319,-74770.920605
1361.107367,2220.617826,2368.659014,-72625.853210
1361.109947,-1924.535449,-740.205942,-73085.510509
1361.112526,-6069.688724,1480.411884,-71859.757712
1361.115106,2960.823768,2516.700203,-72012.976812
1361.117686,-4293.194464,-2516.700203,-73085.510509
1361.120266,3849.070898,1036.288319,-73851.606007
1361.122846,-3701.029710,-592.164754,-74158.044206
1361.125426,-4293.194464,2516.700203,-72472.634111
1361.128007,-10214.842000,-3997.112087,-73085.510509
1361.130589,-12731.542202,3701.029710,-73545.167808
1361.133171,-6809.894666,2072.576638,-74311.263306
1361.135752,-3701.029710,148.041188,-75383.797003
1361.138334,1036.288319,-148.041188,-73698.386908
1361.140916,11399.171507,-148.041188,-75077.358804
1361.143497,8290.306550,3849.070898,-72625.853210
1361.146079,11991.336260,-4293.194464,-71246.881314
1361.148660,15692.365970,-4885.359217,-70787.224015
1361.151242,15988.448347,-2368.659014,-70634.004916
1361.153824,11843.295072,1480.411884,-72625.853210
1361.156405,4737.318029,-4293.194464,-74464.482406
1361.158987,740.205942,1628.453072,-76609.549800
1361.161569,1184.329507,-1184.329507,-74464.482406
1361.164150,740.205942,-1924.535449,-75690.235202
1361.166732,9326.594869,296.082377,-71706.538613
1361.169313,-3997.112087,-444.123565,-74770.920605
1361.171895,3997.112087,1184.329507,-74617.701505
1361.174477,21021.848753,-3108.864956,-71400.100414
1361.177058,12879.583391,-2220.617826,-73545.167808
1361.179640,18209.066173,444.123565,-73545.167808
1361.182222,4737.318029,-3997.112087,-72932.291410
1361.184803,12879.583391,-1480.411884,-70787.224015
1361.187385,9326.594869,-1184.329507,-70327.566716
1361.189967,4589.276840,296.082377,-72319.415011
1361.192548,-3256.906145,-148.041188,-74464.482406
1361.195130,-13915.871710,2368.659014,-75383.797003
1361.197711,-11695.253884,-2072.576638,-74617.701505
1361.200293,-6957.935855,2516.700203,-75383.797003
1361.202875,-2516.700203,-4293.194464,-74158.044206
1361.205456,-148.041188,1332.370696,-74617.701505
1361.208038,3404.947333,1924.535449,-71706.538613
1361.210620,-5773.606348,-2072.576638,-73238.729609
1361.213201,-10658.965565,5181.441594,-71859.757712
1361.215783,8882.471304,-1628.453072,-71093.662214
1361.218364,-740.205942,-1332.370696,-71246.881314
1361.220946,-9030.512492,1036.288319,-75843.454302
1361.223528,8438.347739,-4885.359217,-75230.577904
1361.226109,-13027.624579,1036.288319,-72319.415011
1361.228691,-8734.430116,-2664.741391,-73238.729609
1361.231273,740.205942,-5033.400406,-74158.044206
1361.233856,-11399.171507,2664.741391,-74004.825107
1361.236439,1036.288319,-1036.288319,-75077.358804
1361.239022,-148.041188,-148.041188,-74464.482406
1361.241605,13619.789333,-2368.659014,-72472.634111
1361.244188,16580.613101,2516.700203,-72779.072310
1361.246771,7105.977043,-2516.700203,-71706.538613
1361.249354,12435.459826,-8882.471304,-70327.566716
1361.251937,11547.212695,-888.247130,-71093.662214
1361.254520,9178.553681,740.205942,-72319.415011
1361.257103,9474.636058,-1776.494261,-72779.072310
1361.259686,2368.659014,-740.205942,-75690.235202
1361.262269,1036.288319,-1332.370696,-73851.606007
1361.264852,3849.070898,444.123565,-74464.482406
1361.267435,12435.459826,-740.205942,-73851.606007
1361.270018,2516.700203,-444.123565,-74464.482406
1361.272601,4293.194464,-4589.276840,-72625.853210
1361.275184,18357.107362,4885.359217,-73085.510509
1361.277767,14508.036463,-3552.988522,-73085.510509
1361.280350,14359.995275,-2812.782580,-72779.072310
1361.282933,15248.242405,1776.494261,-71246.881314
1361.285516,1480.411884,-4441.235652,-70634.004916
1361.288099,2220.617826,4737.318029,-71400.100414
1361.290682,592.164754,-2072.576638,-73391.948708
1361.293265,-4885.359217,-1184.329507,-75843.454302
1361.295848,-5033.400406,-148.041188,-75077.358804
1361.298431,-12287.418637,-296.082377,-74617.701505
1361.301014,-12287.418637,0.000000,-74004.825107
1361.303597,-3552.988522,3108.864956,-75230.577904
1361.306180,5181.441594,-7402.059420,-74004.825107
1361.308763,3108.864956,1480.411884,-75230.577904
1361.311346,-3849.070898,3552.988522,-71400.100414
1361.313897,-9918.759623,-1036.288319,-69714.690318
1361.316448,6513.812290,-1184.329507,-72012.976812
1361.318999,-6513.812290,1036.288319,-71706.538613
1361.321550,4737.318029,-3256.906145,-74311.263306
1361.324101,1184.329507,2960.823768,-74464.482406
1361.326652,-18209.066173,-4737.318029,-73238.729609
1361.329203,-5329.482782,4737.318029,-73851.606007
1361.331754,-10066.800811,-2220.617826,-73391.948708
1361.334305,-148.041188,2368.659014,-75077.358804
1361.336856,2220.617826,-3108.864956,-75077.358804
1361.339407,2664.741391,1924.535449,-75537.016103
1361.341958,12583.501014,4737.318029,-73238.729609
1361.344509,13175.665768,-5477.523971,-70787.224015
1361.347060,17912.983796,-2368.659014,-70480.785816
1361.349611,15396.283594,-1184.329507,-70174.347617
1361.352162,7254.018232,592.164754,-70940.443115
1361.354713,7994.224174,-2072.576638,-72472.634111
1361.357264,6069.688724,1480.411884,-73238.729609
1361.359815,8290.306550,-2812.782580,-76149.892501
1361.362366,-1332.370696,-4293.194464,-74004.825107
1361.364917,-10066.800811,4293.194464,-74924.139704
1361.367468,16432.571912,296.082377,-75690.235202
1361.370019,4441.235652,-6217.729913,-71706.538613
1361.372570,8734.430116,3701.029710,-72166.195912
1361.375121,25315.043216,-6365.771101,-74158.044206
1361.377672,7105.977043,-444.123565,-72166.195912
1361.380223,17172.777854,-740.205942,-72472.634111
1361.382774,2960.823768,-592.164754,-71093.662214
1361.385325,-592.164754,-1480.411884,-72319.415011
1361.387876,6513.812290,444.123565,-72012.976812
1361.390427,-3849.070898,296.082377,-75077.358804
1361.392978,-5625.565159,-1628.453072,-74617.701505
1361.395529,-11399.171507,-592.164754,-74770.920605
1361.398080,-15692.365970,-148.041188,-73391.948708
1361.400631,740.205942,-1924.535449,-75230.577904
1361.403182,5477.523971,-5773.606348,-73851.606007
1361.405733,7550.100608,2960.823768,-72012.976812
1361.408283,-3849.070898,-1628.453072,-73085.510509
1361.410834,3701.029710,-148.041188,-70021.128517
1361.413385,1628.453072,3404.947333,-70327.566716
1361.415944,-3404.947333,-3404.947333,-75077.358804
1361.418502,296.082377,-4145.153275,-73851.606007
1361.421060,-5625.565159,3849.070898,-74924.139704
1361.423618,-9326.594869,-5625.565159,-73851.606007
1361.426176,-11399.171507,3404.947333,-73238.729609
1361.428734,-7846.182985,1332.370696,-73391.948708
1361.431292,-740.205942,-148.041188,-74311.263306
1361.433850,592.164754,-888.247130,-74770.920605
1361.436408,6957.935855,592.164754,-76149.892501
1361.438967,14656.077652,4441.235652,-73698.386908
1361.441525,10658.965565,-1776.494261,-71706.538613
1361.444083,15396.283594,-6809.894666,-71246.881314
1361.446641,17024.736666,592.164754,-70021.128517
1361.449199,10214.842000,740.205942,-69408.252119
1361.451757,5477.523971,-3108.864956,-71553.319513
1361.454315,3552.988522,5033.400406,-74924.139704
1361.456873,7402.059420,-4737.318029,-75230.577904
1361.459432,-296.082377,-2664.741391,-76149.892501
1361.461990,9622.677246,1036.288319,-76149.892501
1361.464548,3108.864956,740.205942,-70174.347617
1361.467106,5181.441594,-2664.741391,-72472.634111
1361.469664,20133.601622,3256.906145,-72932.291410
1361.472222,12879.583391,-4293.194464,-73391.948708
1361.474780,16728.654289,-4737.318029,-72625.853210
1361.477338,14656.077652,2960.823768,-71706.538613
1361.479896,1776.494261,-4737.318029,-71553.319513
1361.482455,3997.112087,2072.576638,-70787.224015
1361.485013,-2960.823768,1184.329507,-72472.634111
1361.487571,-1776.494261,-1776.494261,-75383.797003
1361.490129,-9030.512492,2516.700203,-75996.673402
1361.492687,-9918.759623,444.123565,-74311.263306
1361.495245,-12731.542202,-740.205942,-74464.482406
1361.497803,-4293.194464,2664.741391,-75843.454302
1361.500361,7402.059420,-9326.594869,-74924.139704
1361.502920,1924.535449,3552.988522,-73545.167808
1361.505478,-1776.494261,1036.288319,-72012.976812
1361.508036,888.247130,-4441.235652,-69255.033019
1361.510594,-7402.059420,1480.411884,-70940.443115
1361.513152,-1628.453072,1480.411884,-75230.577904
1361.515710,1480.411884,-2812.782580,-74311.263306
1361.518274,-17172.777854,296.082377,-74004.825107
1361.520838,-4145.153275,-148.041188,-73851.606007
1361.523402,-6661.853478,-7254.018232,-74158.044206
1361.525967,-9030.512492,5033.400406,-72472.634111
1361.528531,-1924.535449,-3849.070898,-75383.797003
1361.531095,-2960.823768,-592.164754,-76609.549800
1361.533659,15396.283594,296.082377,-76303.111601
1361.536223,16136.489536,1184.329507,-73391.948708
1361.538787,9918.759623,-2368.659014,-71400.100414
1361.541351,13323.706956,-3849.070898,-70787.224015
1361.543915,13175.665768,-4293.194464,-68948.594820
1361.546480,12583.501014,6957.935855,-71246.881314
1361.549044,7254.018232,-5181.441594,-71400.100414
1361.551608,8734.430116,1036.288319,-75230.577904
1361.554172,7994.224174,-4293.194464,-76762.768900
1361.556736,1628.453072,-2960.823768,-75690.235202
1361.559300,-2220.617826,1924.535449,-74464.482406
1361.561864,7550.100608,148.041188,-71400.100414
1361.564428,9770.718434,-2220.617826,-73085.510509
1361.566992,15100.201217,-1776.494261,-75077.358804
1361.569557,16284.530724,740.205942,-73085.510509
1361.572121,13027.624579,-592.164754,-71859.757712
1361.574685,6661.853478,-6365.771101,-71859.757712
1361.577249,4293.194464,5625.565159,-71246.881314
1361.579813,6365.771101,-2812.782580,-70940.443115
1361.582377,-4441.235652,3256.906145,-72166.195912
1361.584941,-9326.594869,1480.411884,-75996.673402
1361.587505,-12583.501014,-4737.318029,-75996.673402
1361.590069,-14211.954086,5181.441594,-74158.044206
1361.592634,-1184.329507,-4441.235652,-73851.606007
1361.595198,444.123565,-1480.411884,-75383.797003
1361.597762,1184.329507,-296.082377,-75077.358804
1361.600326,-888.247130,-592.164754,-72166.195912
1361.602890,-1184.329507,4145.153275,-70021.128517
1361.605454,-1924.535449,-2960.823768,-70634.004916
1361.608018,-6069.688724,296.082377,-73085.510509
1361.610582,0.000000,-740.205942,-73545.167808
1361.613147,-3256.906145,-888.247130,-74004.825107
1361.615711,-11103.089130,-296.082377,-72625.853210
1361.618275,-2072.576638,-2516.700203,-75690.235202
1361.620811,-15248.242405,4145.153275,-73698.386908
1361.623347,0.000000,2220.617826,-73238.729609
1361.625883,740.205942,-2664.741391,-73545.167808
1361.628419,7402.059420,-740.205942,-75843.454302
1361.630955,16136.489536,1628.453072,-74617.701505
1361.633491,12139.377449,3404.947333,-71093.662214
1361.636027,13619.789333,-12435.459826,-71400.100414
1361.638563,13767.830521,-444.123565,-71246.881314
1361.641099,9326.594869,2220.617826,-70480.785816
1361.643635,5921.647536,-7846.182985,-72012.976812
1361.646171,1332.370696,6957.935855,-73238.729609
1361.648706,9918.759623,-4145.153275,-74924.139704
1361.651242,25611.125593,-8290.306550,-77069.207099
1361.653778,4885.359217,-3849.070898,-74004.825107
1361.656314,-5921.647536,4441.235652,-72625.853210
1361.658850,19097.313304,-7254.018232,-72625.853210
1361.661386,3997.112087,0.000000,-72625.853210
1361.663922,26499.372724,740.205942,-74464.482406
1361.666458,10362.883188,-3849.070898,-72625.853210
1361.668994,2812.782580,-2368.659014,-71246.881314
1361.671530,11251.130318,1480.411884,-72319.415011
1361.674066,-1776.494261,1924.535449,-70327.566716
1361.676602,-3849.070898,-888.247130,-72319.415011
1361.679138,-7994.224174,5477.523971,-74004.825107
1361.681674,-9622.677246,-5921.647536,-75996.673402
1361.684210,-4145.153275,888.247130,-74617.701505
1361.686746,-9326.594869,-1184.329507,-74158.044206
1361.689282,-2664.741391,0.000000,-73085.510509
1361.691818,4145.153275,888.247130,-72779.072310
1361.694354,2664.741391,-2072.576638,-74004.825107
1361.696890,740.205942,888.247130,-70787.224015
1361.699426,-3849.070898,1776.494261,-70940.443115
1361.701962,8438.347739,-1036.288319,-70787.224015
1361.704498,-8882.471304,-3849.070898,-73851.606007
1361.707034,-2812.782580,444.123565,-73698.386908
1361.709570,-2368.659014,1480.411884,-73238.729609
1361.712106,-6957.935855,-2516.700203,-74004.825107
1361.714642,-9326.594869,-444.123565,-74004.825107
1361.717178,-7698.141797,1480.411884,-74158.044206
1361.719714,-444.123565,1184.329507,-73085.510509
1361.722260,12435.459826,-2368.659014,-75230.577904
1361.724806,14063.912898,2812.782580,-75537.016103
1361.727352,14359.995275,1036.288319,-72625.853210
1361.729897,9326.594869,-3997.112087,-70327.566716
1361.732443,14952.160028,-4589.276840,-69867.909418
1361.734989,9178.553681,3552.988522,-70327.566716
1361.737535,4441.235652,-4885.359217,-73698.386908
1361.740081,5625.565159,6809.894666,-73085.510509
1361.742627,6957.935855,-2368.659014,-76915.987999
1361.745173,3849.070898,-6513.812290,-75996.673402
1361.747719,3256.906145,1184.329507,-74770.920605
1361.750265,17468.860231,-1184.329507,-69867.909418
1361.752811,5773.606348,-1332.370696,-71400.100414
1361.755357,16136.489536,-6365.771101,-73238.729609
1361.757902,16580.613101,-2368.659014,-73085.510509
1361.760448,17616.901420,1480.411884,-73085.510509
1361.762994,7254.018232,-4145.153275,-72779.072310
1361.765540,2960.823768,148.041188,-71553.319513
1361.768086,-148.041188,3701.029710,-71706.538613
1361.770632,-5773.606348,0.000000,-71859.757712
1361.773178,-7846.182985,4589.276840,-74004.825107
1361.775724,-9622.677246,-2812.782580,-75383.797003
1361.778270,-11843.295072,-444.123565,-75843.454302
1361.780816,-4737.318029,1924.535449,-74924.139704
1361.783361,1036.288319,296.082377,-72779.072310
1361.785907,7105.977043,-5921.647536,-72319.415011
1361.788453,1628.453072,-740.205942,-74158.044206
1361.790999,740.205942,1036.288319,-70940.443115
1361.793545,-10066.800811,592.164754,-70021.128517
1361.796091,10807.006753,-1036.288319,-71093.662214
1361.798637,444.123565,5329.482782,-73698.386908
1361.801183,-21317.931130,-5329.482782,-73545.167808
1361.803729,-4145.153275,7402.059420,-73698.386908
1361.806275,-5773.606348,-5773.606348,-73391.948708
1361.808820,-7550.100608,-296.082377,-73391.948708
1361.811366,888.247130,1332.370696,-73545.167808
1361.813912,-1628.453072,-148.041188,-74311.263306
1361.816458,16728.654289,-2812.782580,-74004.825107
1361.819004,16432.571912,-296.082377,-75690.235202
1361.821550,15988.448347,-2960.823768,-72319.415011
1361.824105,10214.842000,740.205942,-70940.443115
1361.826659,2960.823768,-2516.700203,-70480.785816
1361.829214,9770.718434,-2072.576638,-70174.347617
1361.831768,9030.512492,2960.823768,-71400.100414
1361.834323,-1776.494261,-2812.782580,-75843.454302
1361.836877,11251.130318,148.041188,-75996.673402
1361.839432,9918.759623,-7105.977043,-76609.549800
1361.841986,3849.070898,1332.370696,-71553.319513
1361.844541,10510.924376,-740.205942,-70480.785816
1361.847095,15692.365970,-6513.812290,-72012.976812
1361.849650,12287.418637,1924.535449,-73698.386908
1361.852205,16136.489536,-2812.782580,-73545.167808
1361.854759,14656.077652,0.000000,-72932.291410
1361.857314,4737.318029,-1332.370696,-73238.729609
1361.859868,2960.823768,-5329.482782,-72319.415011
1361.862423,-7846.182985,6217.729913,-70940.443115
1361.864977,-5921.647536,444.123565,-72932.291410
1361.867532,-10066.800811,-1924.535449,-75843.454302
1361.870086,-6957.935855,740.205942,-75996.673402
1361.872641,-9178.553681,-3404.947333,-74924.139704
1361.875195,-4441.235652,2368.659014,-74004.825107
1361.877750,7846.182985,-5477.523971,-71706.538613
1361.880305,2960.823768,3256.906145,-72779.072310
1361.882859,2960.823768,-888.247130,-71093.662214
1361.885414,-5921.647536,-1184.329507,-71553.319513
1361.887968,-3404.947333,1924.535449,-70940.443115
1361.890523,1332.370696,-592.164754,-76303.111601
1361.893077,-13619.789333,-2220.617826,-73391.948708
1361.895632,-8586.388927,4737.318029,-73698.386908
1361.898186,-1924.535449,-3701.029710,-72625.853210
1361.900741,-13619.789333,4737.318029,-74004.825107
1361.903295,-1036.288319,-3404.947333,-74464.482406
1361.905850,-592.164754,-1776.494261,-72472.634111
1361.908405,13471.748144,-2368.659014,-75077.358804
1361.910959,17024.736666,-1184.329507,-75996.673402
1361.913514,9918.759623,-444.123565,-72472.634111
1361.916068,17024.736666,-1628.453072,-71093.662214
1361.918623,14952.160028,-592.164754,-70021.128517
1361.921177,7994.224174,-2072.576638,-70787.224015
1361.923732,3256.906145,-592.164754,-70021.128517
1361.926261,4441.235652,1480.411884,-73851.606007
1361.928790,-3701.029710,-2072.576638,-75843.454302
1361.931319,4885.359217,0.000000,-76915.987999
1361.933848,21021.848753,-3108.864956,-73545.167808
1361.936377,-4145.153275,-444.123565,-70327.566716
1361.938906,22058.137072,2368.659014,-71706.538613
1361.941435,10066.800811,-6957.935855,-72166.195912
1361.943964,18061.024985,-444.123565,-74004.825107
1361.946494,29904.320057,-1036.288319,-72319.415011
1361.949023,1924.535449,740.205942,-72625.853210
1361.951552,-888.247130,-8290.306550,-73238.729609
1361.954081,-4293.194464,10214.842000,-70787.224015
1361.956610,-6957.935855,-3404.947333,-71859.757712
1361.959139,-1924.535449,3849.070898,-73851.606007
1361.961668,-14359.995275,-3256.906145,-75996.673402
1361.964197,-12435.459826,-888.247130,-76149.892501
1361.966726,-2516.700203,1628.453072,-75383.797003
1361.969255,4589.276840,-5329.482782,-74158.044206
1361.971784,3997.112087,2812.782580,-73085.510509
1361.974313,1332.370696,-3552.988522,-72012.976812
1361.976842,-1776.494261,1184.329507,-71093.662214
1361.979372,-592.164754,1776.494261,-71400.100414
1361.981901,-3997.112087,-2220.617826,-74464.482406
1361.984430,-10214.842000,-2072.576638,-73698.386908
1361.986959,-12139.377449,3404.947333,-74311.263306
1361.989488,-2368.659014,-3701.029710,-73851.606007
1361.992017,-11103.089130,4441.235652,-73545.167808
1361.994546,-4589.276840,-2072.576638,-74770.920605
1361.997075,-1480.411884,0.000000,-72779.072310
1361.999604,11547.212695,-740.205942,-74617.701505
1362.002133,13323.706956,-1184.329507,-75230.577904
1362.004662,17024.736666,148.041188,-73545.167808
1362.007191,14656.077652,-5625.565159,-70940.443115
1362.009720,15692.365970,-888.247130,-69714.690318
1362.012250,6365.771101,-148.041188,-70174.347617
1362.014779,1628.453072,-4145.153275,-70021.128517
1362.017308,-2812.782580,6513.812290,-75843.454302
1362.019837,4885.359217,-2220.617826,-75843.454302
1362.022366,4737.318029,-3997.112087,-76762.768900
1362.024895,444.123565,-740.205942,-75383.797003
1362.027436,13027.624579,1036.288319,-73391.948708
1362.029977,17468.860231,-2960.823768,-70480.785816
1362.032518,11695.253884,-2072.576638,-72472.634111
1362.035059,10955.047942,-2368.659014,-72932.291410
1362.037599,18949.272115,2220.617826,-72625.853210
1362.040140,10807.006753,-1924.535449,-72779.072310
1362.042681,-148.041188,-740.205942,-73238.729609
1362.045222,-11103.089130,4885.359217,-72166.195912
1362.047763,-8734.430116,1628.453072,-71859.757712
1362.050304,-10955.047942,1332.370696,-74158.044206
1362.052845,-5329.482782,-1332.370696,-75537.016103
1362.055386,-12139.377449,-2960.823768,-75537.016103
1362.057927,-3404.947333,-444.123565,-75230.577904
1362.060468,3256.906145,-1924.535449,-75537.016103
1362.063009,5625.565159,-1924.535449,-71400.100414
1362.065549,3108.864956,-592.164754,-70634.004916
1362.068090,-3552.988522,3701.029710,-69867.909418
1362.070631,2812.782580,-1924.535449,-72779.072310
1362.073172,-3552.988522,148.041188,-74770.920605
