#time,accel_x,accel_y,accel_z
1223.808218,2812.782580,-296.082377,-73085.510509
1223.810799,2664.741391,-444.123565,-73238.729609
1223.813381,2812.782580,-1184.329507,-73085.510509
1223.815963,2812.782580,-1036.288319,-73238.729609
1223.818544,2812.782580,148.041188,-73085.510509
1223.821126,2960.823768,-444.123565,-72625.853210
1223.823521,2812.782580,-1184.329507,-73085.510509
1223.825916,2960.823768,-1036.288319,-73238.729609
1223.828311,2812.782580,148.041188,-73545.167808
1223.830706,2664.741391,148.041188,-73238.729609
1223.833101,2812.782580,-1036.288319,-73238.729609
1223.835496,2516.700203,-592.164754,-73085.510509
1223.837891,2516.700203,-592.164754,-73238.729609
1223.840286,3108.864956,-592.164754,-73085.510509
1223.842681,2664.741391,-444.123565,-73238.729609
1223.845076,2368.659014,-592.164754,-72779.072310
1223.847471,2516.700203,-444.123565,-73238.729609
1223.849866,3108.864956,-1184.329507,-72779.072310
1223.852261,1332.370696,-19541.436869,-73238.729609
1223.854656,7550.100608,15544.324782,-73851.606007
1223.857051,-1480.411884,-12435.459826,-73698.386908
1223.859446,740.205942,-7846.182985,-74464.482406
1223.861841,4441.235652,9474.636058,-72012.976812
1223.864236,2812.782580,-11251.130318,-72932.291410
1223.866631,2664.741391,-3256.906145,-73238.729609
1223.869026,2664.741391,-5477.523971,-73238.729609
1223.871421,1480.411884,-3997.112087,-72779.072310
1223.873816,4737.318029,-1628.453072,-73238.729609
1223.876211,148.041188,444.123565,-73545.167808
1223.878606,2812.782580,-8142.265362,-73545.167808
1223.881001,1480.411884,-148.041188,-73545.167808
1223.883396,2220.617826,-3256.906145,-72932.291410
1223.885792,4293.194464,4737.318029,-73085.510509
1223.888187,2812.782580,7105.977043,-72625.853210
1223.890582,5181.441594,444.123565,-72779.072310
1223.892977,3997.112087,10658.965565,-74464.482406
1223.895372,1628.453072,-6957.935855,-73698.386908
1223.897767,5773.606348,4293.194464,-73851.606007
1223.900162,-1036.288319,-148.041188,-72472.634111
1223.902557,4293.194464,-8290.306550,-72166.195912
1223.904952,3701.029710,12287.418637,-73698.386908
1223.907347,4293.194464,7698.141797,-72319.415011
1223.909742,5921.647536,13767.830521,-74924.139704
1223.912137,-888.247130,-1924.535449,-74311.263306
1223.914532,-1184.329507,-6513.812290,-73698.386908
1223.916927,6661.853478,7402.059420,-72166.195912
1223.919380,5773.606348,5921.647536,-72012.976812
1223.921834,2220.617826,13619.789333,-74004.825107
1223.924287,2220.617826,-6513.812290,-74158.044206
1223.926741,5033.400406,-1184.329507,-72472.634111
1223.929194,1036.288319,3108.864956,-73851.606007
1223.931647,2368.659014,1036.288319,-72319.415011
1223.934101,3552.988522,4589.276840,-72625.853210
1223.936554,3404.947333,2220.617826,-73851.606007
1223.939008,2368.659014,1776.494261,-73851.606007
1223.941461,3256.906145,1036.288319,-73238.729609
1223.943915,5033.400406,9474.636058,-73238.729609
1223.946368,592.164754,592.164754,-72319.415011
1223.948821,2960.823768,2960.823768,-72779.072310
1223.951275,5477.523971,3404.947333,-72472.634111
1223.953728,2072.576638,-1332.370696,-73391.948708
1223.956182,4441.235652,-1184.329507,-74004.825107
1223.958635,2220.617826,1628.453072,-72779.072310
1223.961089,1184.329507,4145.153275,-71859.757712
1223.963542,5477.523971,-296.082377,-73698.386908
1223.965995,4885.359217,-4589.276840,-74464.482406
1223.968449,3849.070898,3108.864956,-74617.701505
1223.970902,296.082377,-9918.759623,-72932.291410
1223.973356,-1184.329507,-11695.253884,-72779.072310
1223.975809,2072.576638,-2812.782580,-71246.881314
1223.978263,2220.617826,-2812.782580,-72779.072310
1223.980716,4589.276840,-1628.453072,-73851.606007
1223.983169,1628.453072,1332.370696,-74311.263306
1223.985623,2220.617826,888.247130,-74311.263306
1223.988076,1776.494261,-3552.988522,-72932.291410
1223.990530,2812.782580,-4737.318029,-72779.072310
1223.992983,1776.494261,-296.082377,-72932.291410
1223.995437,444.123565,-5921.647536,-73851.606007
1223.997890,1480.411884,-4737.318029,-73545.167808
1224.000343,5329.482782,0.000000,-72779.072310
1224.002797,-2072.576638,-11991.336260,-74924.139704
1224.005250,5921.647536,-1036.288319,-74004.825107
1224.007704,4737.318029,5181.441594,-72012.976812
1224.010157,3701.029710,-22650.301825,-73391.948708
1224.012611,12287.418637,37750.503042,-71859.757712
1224.015064,296.082377,-43376.068201,-71859.757712
1224.017557,12583.501014,28127.825796,-73698.386908
1224.020050,2960.823768,16728.654289,-70940.443115
1224.022543,-2812.782580,-29608.237680,-74158.044206
1224.025035,7846.182985,19245.354492,-71246.881314
1224.027528,-3997.112087,-17024.736666,-74158.044206
1224.030021,444.123565,-888.247130,-75690.235202
1224.032514,3256.906145,2812.782580,-72932.291410
1224.035007,1480.411884,-13915.871710,-73085.510509
1224.037500,5181.441594,5477.523971,-73391.948708
1224.039993,1036.288319,-4589.276840,-73391.948708
1224.042486,592.164754,-4441.235652,-74464.482406
1224.044979,3701.029710,-1036.288319,-72779.072310
1224.047471,1628.453072,-11695.253884,-74004.825107
1224.049964,3108.864956,-4145.153275,-73391.948708
1224.052457,2220.617826,-2220.617826,-72779.072310
1224.054950,1184.329507,-888.247130,-72779.072310
1224.057443,3849.070898,-888.247130,-72779.072310
1224.059936,5033.400406,4885.359217,-74158.044206
1224.062429,1628.453072,1184.329507,-73851.606007
1224.064922,3256.906145,3108.864956,-72319.415011
1224.067414,1628.453072,2812.782580,-72625.853210
1224.069907,3552.988522,3552.988522,-73391.948708
1224.072400,2220.617826,-6661.853478,-73851.606007
1224.074893,3997.112087,2516.700203,-73698.386908
1224.077386,3701.029710,3404.947333,-73391.948708
1224.079879,3404.947333,7994.224174,-72625.853210
1224.082372,740.205942,2960.823768,-73545.167808
1224.084865,6365.771101,4589.276840,-73545.167808
1224.087358,148.041188,444.123565,-74464.482406
1224.089850,3256.906145,-1332.370696,-74158.044206
1224.092343,296.082377,148.041188,-73085.510509
1224.094836,1628.453072,-888.247130,-73851.606007
1224.097329,592.164754,1332.370696,-74770.920605
1224.099822,1924.535449,-12583.501014,-73238.729609
1224.102315,10066.800811,16876.695478,-72625.853210
1224.104808,1332.370696,-5625.565159,-72779.072310
1224.107301,-1480.411884,-5329.482782,-73391.948708
1224.109794,6809.894666,6957.935855,-73545.167808
1224.112286,7105.977043,5773.606348,-72472.634111
1224.114779,-2664.741391,-4145.153275,-74311.263306
1224.117178,2960.823768,7254.018232,-75230.577904
1224.119578,1924.535449,1184.329507,-73698.386908
1224.121977,1628.453072,148.041188,-73238.729609
1224.124376,4589.276840,4885.359217,-71859.757712
1224.126776,888.247130,8734.430116,-73085.510509
1224.129175,4441.235652,-1776.494261,-73238.729609
1224.131575,3997.112087,7550.100608,-73238.729609
1224.133974,2516.700203,1036.288319,-74158.044206
1224.136373,2516.700203,-1184.329507,-73851.606007
1224.138773,4737.318029,1480.411884,-72779.072310
1224.141172,1628.453072,-1036.288319,-72932.291410
1224.143571,1628.453072,-740.205942,-72472.634111
1224.145971,4293.194464,148.041188,-72472.634111
1224.148370,1628.453072,5625.565159,-73085.510509
1224.150769,6069.688724,3108.864956,-74311.263306
1224.153169,3404.947333,-11103.089130,-74158.044206
1224.155568,1184.329507,2960.823768,-73851.606007
1224.157967,1036.288319,-9918.759623,-71859.757712
1224.160367,592.164754,-11991.336260,-73238.729609
1224.162766,4737.318029,1332.370696,-73085.510509
1224.165165,1924.535449,-3256.906145,-73238.729609
1224.167565,2664.741391,-3256.906145,-73085.510509
1224.169964,1776.494261,2368.659014,-73545.167808
1224.172363,888.247130,-2664.741391,-72472.634111
1224.174763,2812.782580,-6513.812290,-72932.291410
1224.177162,2220.617826,-740.205942,-73238.729609
1224.179561,2072.576638,-1776.494261,-73238.729609
1224.181961,1480.411884,-2220.617826,-73391.948708
1224.184360,3404.947333,1332.370696,-72779.072310
1224.186759,5329.482782,-7550.100608,-72319.415011
1224.189159,2664.741391,-1332.370696,-73391.948708
1224.191558,7550.100608,19985.560434,-72625.853210
1224.193957,-2220.617826,-13027.624579,-73238.729609
1224.196357,4441.235652,-10510.924376,-74311.263306
1224.198756,5625.565159,35233.802839,-72472.634111
1224.201156,-3256.906145,-34789.679274,-72012.976812
1224.203555,8882.471304,13323.706956,-73698.386908
1224.205954,-6217.729913,4293.194464,-75690.235202
1224.208354,1924.535449,-31532.773129,-75077.358804
1224.210753,7550.100608,18357.107362,-73238.729609
1224.213209,-1924.535449,-15544.324782,-74924.139704
1224.215665,1184.329507,-5477.523971,-73851.606007
1224.218121,7402.059420,7698.141797,-72166.195912
1224.220577,740.205942,-11991.336260,-73391.948708
1224.223033,5625.565159,4145.153275,-73238.729609
1224.225489,296.082377,-9326.594869,-73851.606007
1224.227945,3997.112087,-9474.636058,-73238.729609
1224.230401,5181.441594,-2072.576638,-73238.729609
1224.232857,2368.659014,-3849.070898,-72625.853210
1224.235313,-296.082377,-2072.576638,-72166.195912
1224.237769,2812.782580,3552.988522,-72932.291410
1224.240225,3849.070898,-2220.617826,-73391.948708
1224.242681,4145.153275,5625.565159,-74464.482406
1224.245137,3404.947333,1628.453072,-73238.729609
1224.247593,1924.535449,592.164754,-72319.415011
1224.250049,1628.453072,2812.782580,-73238.729609
1224.252505,1480.411884,-1332.370696,-74311.263306
1224.254961,5181.441594,592.164754,-72625.853210
1224.257417,4145.153275,2664.741391,-73085.510509
1224.259873,2072.576638,3849.070898,-72779.072310
1224.262329,4145.153275,8734.430116,-72779.072310
1224.264785,2072.576638,3256.906145,-72779.072310
1224.267241,2812.782580,-2368.659014,-73238.729609
1224.269697,7254.018232,9770.718434,-73085.510509
1224.272153,148.041188,-6217.729913,-74158.044206
1224.274609,3552.988522,3701.029710,-73238.729609
1224.277065,4441.235652,9326.594869,-71400.100414
1224.279521,3108.864956,8882.471304,-73698.386908
1224.281977,-148.041188,-26203.290347,-74464.482406
1224.284433,5921.647536,33901.432144,-73851.606007
1224.286889,-5033.400406,-30940.608376,-72166.195912
1224.289345,-888.247130,21317.931130,-74617.701505
1224.291801,5181.441594,9474.636058,-74311.263306
1224.294257,-4589.276840,-14508.036463,-75537.016103
1224.296714,8586.388927,18949.272115,-72625.853210
1224.299170,5477.523971,-3256.906145,-72472.634111
1224.301626,740.205942,1480.411884,-73698.386908
1224.304082,4441.235652,10214.842000,-72472.634111
1224.306538,-2368.659014,-3849.070898,-72779.072310
1224.308994,5625.565159,12287.418637,-72932.291410
1224.311490,2664.741391,0.000000,-72779.072310
1224.313987,592.164754,-1184.329507,-73545.167808
1224.316483,8290.306550,7550.100608,-73545.167808
1224.318980,-1332.370696,-6809.894666,-73391.948708
1224.321476,3849.070898,3108.864956,-73238.729609
1224.323973,4885.359217,5329.482782,-72319.415011
1224.326469,-1184.329507,740.205942,-73085.510509
1224.328966,7550.100608,4293.194464,-73851.606007
1224.331463,2812.782580,-8438.347739,-74311.263306
1224.333959,3701.029710,1184.329507,-72779.072310
1224.336456,1332.370696,-11547.212695,-72625.853210
1224.338952,148.041188,-6513.812290,-72166.195912
1224.341449,6365.771101,-3701.029710,-71553.319513
1224.343945,1776.494261,-5329.482782,-73391.948708
1224.346442,2664.741391,-592.164754,-73698.386908
1224.348938,2516.700203,-1628.453072,-73851.606007
1224.351435,1628.453072,-9918.759623,-73238.729609
1224.353931,2220.617826,1184.329507,-72319.415011
1224.356428,4293.194464,-1480.411884,-72625.853210
1224.358925,3108.864956,-5921.647536,-73085.510509
1224.361421,1924.535449,4441.235652,-74004.825107
1224.363918,2664.741391,-6513.812290,-72932.291410
1224.366414,740.205942,-10510.924376,-74770.920605
1224.368911,2220.617826,-740.205942,-73238.729609
1224.371407,4589.276840,296.082377,-72012.976812
1224.373904,2664.741391,-4885.359217,-73238.729609
1224.376400,3404.947333,4885.359217,-73698.386908
1224.378897,-148.041188,-13175.665768,-74464.482406
1224.381394,-444.123565,-8290.306550,-72625.853210
1224.383890,740.205942,6513.812290,-74464.482406
1224.386387,592.164754,-6217.729913,-73698.386908
1224.388883,2368.659014,-6365.771101,-72319.415011
1224.391407,4589.276840,3256.906145,-73391.948708
1224.393931,888.247130,-6513.812290,-73851.606007
1224.396454,2516.700203,1924.535449,-73698.386908
1224.398978,3404.947333,-8290.306550,-73545.167808
1224.401502,1480.411884,-9474.636058,-72625.853210
1224.404026,296.082377,-4885.359217,-73391.948708
1224.406549,4737.318029,-5773.606348,-73238.729609
1224.409073,2072.576638,-5329.482782,-74004.825107
1224.411597,4293.194464,-2960.823768,-73698.386908
1224.414121,-1924.535449,-1332.370696,-73238.729609
1224.416644,3701.029710,444.123565,-72012.976812
1224.419168,3849.070898,1776.494261,-72779.072310
1224.421692,1332.370696,4145.153275,-73545.167808
1224.424216,3997.112087,2664.741391,-73698.386908
1224.426739,888.247130,-592.164754,-72779.072310
1224.429263,3108.864956,5477.523971,-73085.510509
1224.431787,1184.329507,-888.247130,-73545.167808
1224.434311,2220.617826,-3256.906145,-73085.510509
1224.436834,6365.771101,6957.935855,-72625.853210
1224.439358,592.164754,1628.453072,-73391.948708
1224.441882,3701.029710,8734.430116,-73545.167808
1224.444406,3849.070898,4589.276840,-73391.948708
1224.446929,3997.112087,2368.659014,-73391.948708
1224.449453,1184.329507,4293.194464,-73085.510509
1224.451977,2516.700203,-444.123565,-72166.195912
1224.454501,7402.059420,3552.988522,-72166.195912
1224.457024,1924.535449,-1036.288319,-73698.386908
1224.459548,5329.482782,19393.395680,-72932.291410
1224.462072,1480.411884,-5477.523971,-72472.634111
1224.464596,296.082377,-5921.647536,-73698.386908
1224.467119,6513.812290,18505.148550,-72625.853210
1224.469643,-740.205942,-3849.070898,-73085.510509
1224.472167,-444.123565,3404.947333,-74158.044206
1224.474691,9474.636058,15544.324782,-72012.976812
1224.477214,2812.782580,-11695.253884,-73238.729609
1224.479738,6069.688724,9622.677246,-73851.606007
1224.482262,-148.041188,1776.494261,-73085.510509
1224.484786,4737.318029,1628.453072,-72779.072310
1224.487309,3997.112087,3997.112087,-72319.415011
1224.489833,3108.864956,3997.112087,-73545.167808
1224.492375,3849.070898,444.123565,-73085.510509
1224.494917,5773.606348,-592.164754,-74004.825107
1224.497459,2220.617826,-1184.329507,-73085.510509
1224.500002,1924.535449,-2072.576638,-71859.757712
1224.502544,3108.864956,4293.194464,-73085.510509
1224.505086,1480.411884,1332.370696,-72472.634111
1224.507628,7254.018232,5329.482782,-74770.920605
1224.510170,4145.153275,-8290.306550,-74004.825107
1224.512712,3404.947333,888.247130,-73085.510509
1224.515254,592.164754,-9770.718434,-71859.757712
1224.517796,1628.453072,-8438.347739,-72012.976812
1224.520338,5477.523971,888.247130,-72472.634111
1224.522880,1480.411884,-3404.947333,-73851.606007
1224.525422,2368.659014,-3701.029710,-74464.482406
1224.527964,1184.329507,-3256.906145,-73698.386908
1224.530507,1184.329507,-6069.688724,-72932.291410
1224.533049,3701.029710,-4145.153275,-72012.976812
1224.535591,2664.741391,2368.659014,-72625.853210
1224.538133,1776.494261,-4737.318029,-73851.606007
1224.540675,2960.823768,740.205942,-72472.634111
1224.543217,4737.318029,-2368.659014,-73238.729609
1224.545759,740.205942,5773.606348,-73238.729609
1224.548301,740.205942,-11103.089130,-74004.825107
1224.550843,2960.823768,-148.041188,-73391.948708
1224.553385,2960.823768,3849.070898,-73085.510509
1224.555927,888.247130,-9918.759623,-73545.167808
1224.558470,1036.288319,-11843.295072,-73698.386908
1224.561012,-592.164754,3404.947333,-75383.797003
1224.563554,2516.700203,-7550.100608,-72779.072310
1224.566096,3256.906145,-5181.441594,-71093.662214
1224.568638,3404.947333,444.123565,-73545.167808
1224.571180,2220.617826,0.000000,-73698.386908
1224.573722,1776.494261,-6365.771101,-74770.920605
1224.576264,1332.370696,-296.082377,-73391.948708
1224.578806,2368.659014,-7550.100608,-72779.072310
1224.581348,2516.700203,-10066.800811,-72472.634111
1224.583890,1332.370696,-3108.864956,-73238.729609
1224.586433,3552.988522,-6217.729913,-72779.072310
1224.588975,2664.741391,-888.247130,-73545.167808
1224.591517,2960.823768,1924.535449,-72625.853210
1224.594072,592.164754,-296.082377,-73085.510509
1224.596628,5477.523971,2220.617826,-73545.167808
1224.599183,1924.535449,5181.441594,-73698.386908
1224.601738,1480.411884,-888.247130,-73238.729609
1224.604294,5181.441594,3701.029710,-73085.510509
1224.606849,3256.906145,3256.906145,-73851.606007
1224.609405,1036.288319,-6809.894666,-73698.386908
1224.611960,2072.576638,2368.659014,-72625.853210
1224.614515,2516.700203,2664.741391,-72472.634111
1224.617071,2516.700203,5033.400406,-73085.510509
1224.619626,5477.523971,8438.347739,-73238.729609
1224.622182,3701.029710,4737.318029,-74004.825107
1224.624737,3997.112087,888.247130,-73238.729609
1224.627293,3256.906145,-148.041188,-72625.853210
1224.629848,4145.153275,2960.823768,-71859.757712
1224.632403,3701.029710,12583.501014,-73391.948708
1224.634959,5329.482782,10362.883188,-73545.167808
1224.637514,2812.782580,-10510.924376,-72932.291410
1224.640070,4441.235652,1332.370696,-73391.948708
1224.642625,5181.441594,13027.624579,-72932.291410
1224.645180,2516.700203,-5921.647536,-73545.167808
1224.647736,296.082377,6069.688724,-73391.948708
1224.650291,5625.565159,12583.501014,-72472.634111
1224.652847,4589.276840,-4885.359217,-73545.167808
1224.655402,5181.441594,11991.336260,-73851.606007
1224.657957,3552.988522,1776.494261,-72472.634111
1224.660513,2664.741391,2072.576638,-72166.195912
1224.663068,2812.782580,8734.430116,-72166.195912
1224.665624,1924.535449,-3552.988522,-72932.291410
1224.668179,6513.812290,7846.182985,-73085.510509
1224.670735,2072.576638,-1628.453072,-74464.482406
1224.673290,3997.112087,888.247130,-73698.386908
1224.675845,740.205942,1332.370696,-72779.072310
1224.678401,0.000000,888.247130,-72625.853210
1224.680956,4885.359217,4293.194464,-73085.510509
1224.683512,2368.659014,-2368.659014,-74004.825107
1224.686067,4145.153275,-1036.288319,-73698.386908
1224.688622,296.082377,-7402.059420,-72779.072310
1224.691178,1924.535449,-8290.306550,-72012.976812
1224.693733,-444.123565,-5921.647536,-72625.853210
1224.696221,4293.194464,-5477.523971,-73391.948708
1224.698708,2664.741391,-1924.535449,-73698.386908
1224.701196,3701.029710,-2664.741391,-73851.606007
1224.703683,1480.411884,-6217.729913,-73391.948708
1224.706171,740.205942,-888.247130,-72166.195912
1224.708659,2960.823768,-5921.647536,-72932.291410
1224.711146,2812.782580,-740.205942,-72932.291410
1224.713634,2368.659014,-11695.253884,-73545.167808
1224.716121,4737.318029,-1036.288319,-72472.634111
1224.718609,3552.988522,10214.842000,-74617.701505
1224.721096,-3108.864956,-16580.613101,-75690.235202
1224.723584,2368.659014,148.041188,-73085.510509
1224.726072,3997.112087,6069.688724,-71859.757712
1224.728559,1184.329507,-6513.812290,-72625.853210
1224.731047,2516.700203,-2220.617826,-73698.386908
1224.733534,1480.411884,6513.812290,-74770.920605
1224.736022,148.041188,-7254.018232,-73545.167808
1224.738509,2812.782580,-6957.935855,-72319.415011
1224.740997,6217.729913,6661.853478,-72625.853210
1224.743484,888.247130,-9770.718434,-73698.386908
1224.745972,2812.782580,-592.164754,-74158.044206
1224.748460,2368.659014,-6513.812290,-73851.606007
1224.750947,0.000000,-11991.336260,-73391.948708
1224.753435,3849.070898,-3701.029710,-72319.415011
1224.755922,1628.453072,-7550.100608,-72779.072310
1224.758410,3404.947333,-2812.782580,-73085.510509
1224.760897,1036.288319,-1628.453072,-73545.167808
1224.763385,3404.947333,2072.576638,-73085.510509
1224.765873,6513.812290,-2664.741391,-73545.167808
1224.768360,1924.535449,5625.565159,-73698.386908
1224.770848,3997.112087,6957.935855,-72166.195912
1224.773335,444.123565,-5329.482782,-73238.729609
1224.775823,2072.576638,4293.194464,-73391.948708
1224.778310,4145.153275,740.205942,-73391.948708
1224.780798,1332.370696,-5625.565159,-73238.729609
1224.783286,5625.565159,9178.553681,-73085.510509
1224.785773,-148.041188,444.123565,-72932.291410
1224.788261,2812.782580,8734.430116,-73545.167808
1224.790748,4885.359217,2368.659014,-72932.291410
1224.793236,3552.988522,4293.194464,-74311.263306
1224.795751,2072.576638,3552.988522,-73391.948708
1224.798266,6217.729913,-5033.400406,-72779.072310
1224.800782,2812.782580,-296.082377,-73698.386908
1224.803297,1184.329507,13471.748144,-73545.167808
1224.805812,2072.576638,-8142.265362,-73238.729609
1224.808328,5329.482782,4737.318029,-73238.729609
1224.810843,2960.823768,18801.230927,-73238.729609
1224.813358,444.123565,-5329.482782,-72932.291410
1224.815874,592.164754,-2220.617826,-72012.976812
1224.818389,4145.153275,15544.324782,-73238.729609
1224.820904,2812.782580,-2368.659014,-72932.291410
1224.823420,2664.741391,2516.700203,-74617.701505
1224.825935,4885.359217,7846.182985,-73698.386908
1224.828450,888.247130,-3404.947333,-73851.606007
1224.830966,4441.235652,9474.636058,-72625.853210
1224.833481,1480.411884,3701.029710,-71553.319513
1224.835996,3552.988522,-1776.494261,-72625.853210
1224.838512,4441.235652,3404.947333,-73085.510509
1224.841027,2812.782580,-3404.947333,-73698.386908
1224.843543,2220.617826,3108.864956,-74004.825107
1224.846058,148.041188,3256.906145,-72319.415011
1224.848573,5329.482782,0.000000,-73545.167808
1224.851089,5329.482782,-2220.617826,-73851.606007
1224.853604,1924.535449,2516.700203,-74004.825107
1224.856119,592.164754,-13619.789333,-72472.634111
1224.858635,1480.411884,-7550.100608,-72319.415011
1224.861150,1776.494261,-5477.523971,-73085.510509
1224.863665,2664.741391,-1480.411884,-73545.167808
1224.866181,1924.535449,-3552.988522,-73085.510509
1224.868696,2516.700203,-1184.329507,-74158.044206
1224.871211,1628.453072,-6809.894666,-73698.386908
1224.873727,2664.741391,-3701.029710,-72932.291410
1224.876242,3108.864956,-1776.494261,-71553.319513
1224.878757,2812.782580,592.164754,-72472.634111
1224.881273,2664.741391,-2368.659014,-73085.510509
1224.883788,2960.823768,3552.988522,-73698.386908
1224.886303,592.164754,-4589.276840,-74617.701505
1224.888819,740.205942,-6809.894666,-73238.729609
1224.891334,5773.606348,7550.100608,-72932.291410
1224.893849,1332.370696,-888.247130,-73085.510509
1224.896386,-888.247130,-11547.212695,-73085.510509
1224.898923,2072.576638,4145.153275,-74311.263306
1224.901460,3701.029710,-12879.583391,-73545.167808
1224.903997,1628.453072,-1924.535449,-72472.634111
1224.906534,1184.329507,-3997.112087,-73545.167808
1224.909070,1332.370696,-592.164754,-72472.634111
1224.911607,3256.906145,444.123565,-73238.729609
1224.914144,2368.659014,-8586.388927,-73698.386908
1224.916681,1776.494261,-9030.512492,-73545.167808
1224.919218,1924.535449,-5033.400406,-74158.044206
1224.921755,3108.864956,-4441.235652,-72625.853210
1224.924292,1332.370696,-1628.453072,-72779.072310
1224.926828,3108.864956,-2960.823768,-73085.510509
1224.929365,2220.617826,2960.823768,-73851.606007
1224.931902,4737.318029,3108.864956,-73851.606007
1224.934439,3701.029710,5033.400406,-74158.044206
1224.936976,1480.411884,3552.988522,-72472.634111
1224.939513,3404.947333,1332.370696,-72932.291410
1224.942050,5033.400406,6661.853478,-73391.948708
1224.944586,1332.370696,-7254.018232,-74158.044206
1224.947123,3108.864956,740.205942,-73238.729609
1224.949660,3404.947333,6957.935855,-72779.072310
1224.952197,2220.617826,3108.864956,-72779.072310
1224.954734,3404.947333,9918.759623,-73238.729609
1224.957271,2516.700203,-2516.700203,-73085.510509
1224.959807,5033.400406,5625.565159,-74004.825107
1224.962344,4589.276840,-444.123565,-72472.634111
1224.964881,1332.370696,-10955.047942,-74004.825107
1224.967418,5329.482782,20873.807564,-72472.634111
1224.969955,-3552.988522,-17764.942608,-72166.195912
1224.972492,2812.782580,-29164.114115,-75383.797003
1224.975029,13767.830521,41895.656317,-72319.415011
1224.977565,1184.329507,-23390.507767,-70940.443115
1224.980102,9622.677246,18061.024985,-72932.291410
1224.982639,-2664.741391,2664.741391,-72779.072310
1224.985176,3997.112087,-10510.924376,-74004.825107
1224.987713,9178.553681,23538.548956,-72166.195912
1224.990250,-4293.194464,-3256.906145,-74617.701505
1224.992787,4589.276840,2368.659014,-73698.386908
1224.995323,2812.782580,11843.295072,-72012.976812
1224.997875,3701.029710,-8142.265362,-72779.072310
1225.000426,5329.482782,11251.130318,-72319.415011
1225.002977,1480.411884,-3108.864956,-74158.044206
1225.005528,4145.153275,1924.535449,-73238.729609
1225.008079,1332.370696,3849.070898,-73238.729609
1225.010630,3701.029710,1184.329507,-73391.948708
1225.013181,2812.782580,-3256.906145,-72779.072310
1225.015732,4145.153275,740.205942,-73698.386908
1225.018283,1184.329507,-7994.224174,-72472.634111
1225.020834,2368.659014,-9474.636058,-72319.415011
1225.023385,1480.411884,-5773.606348,-73545.167808
1225.025936,3256.906145,-2220.617826,-72932.291410
1225.028487,3552.988522,-2664.741391,-73391.948708
1225.031038,1776.494261,-148.041188,-73238.729609
1225.033589,-1628.453072,-6957.935855,-74158.044206
1225.036140,4293.194464,-2960.823768,-73238.729609
1225.038691,2812.782580,-6513.812290,-73851.606007
1225.041242,3256.906145,-5181.441594,-73085.510509
1225.043793,888.247130,2072.576638,-73085.510509
1225.046344,2516.700203,1776.494261,-72319.415011
1225.048895,3552.988522,11547.212695,-73545.167808
1225.051446,-1036.288319,-16728.654289,-72932.291410
1225.053997,-3404.947333,-11547.212695,-73851.606007
1225.056548,10066.800811,4589.276840,-72472.634111
1225.059099,888.247130,-7846.182985,-73545.167808
1225.061650,592.164754,-9770.718434,-72166.195912
1225.064201,5329.482782,1776.494261,-73391.948708
1225.066752,2072.576638,-8438.347739,-73391.948708
1225.069303,888.247130,-9918.759623,-73545.167808
1225.071855,2812.782580,-2812.782580,-72166.195912
1225.074406,3849.070898,-7105.977043,-72166.195912
1225.076957,888.247130,-6957.935855,-73238.729609
1225.079508,4293.194464,-5329.482782,-73085.510509
1225.082059,3849.070898,-9326.594869,-73391.948708
1225.084610,2812.782580,-2072.576638,-73085.510509
1225.087161,740.205942,-6217.729913,-72012.976812
1225.089712,3404.947333,2072.576638,-72472.634111
1225.092263,3849.070898,740.205942,-73545.167808
1225.094814,2960.823768,7846.182985,-73545.167808
1225.097365,3701.029710,3997.112087,-73085.510509
1225.099926,0.000000,148.041188,-73545.167808
1225.102488,6217.729913,4737.318029,-72472.634111
1225.105050,2664.741391,-148.041188,-73698.386908
1225.107612,2664.741391,-7402.059420,-73085.510509
1225.110174,4589.276840,4589.276840,-72472.634111
1225.112736,1924.535449,5033.400406,-72472.634111
1225.115298,4293.194464,4737.318029,-73238.729609
1225.117859,3256.906145,7698.141797,-73085.510509
1225.120421,1776.494261,-2960.823768,-75077.358804
1225.122983,5625.565159,7105.977043,-74004.825107
1225.125545,296.082377,-5625.565159,-73545.167808
1225.128107,7254.018232,-4145.153275,-72625.853210
1225.130669,9770.718434,22354.219448,-71400.100414
1225.133231,-2368.659014,-8586.388927,-73085.510509
1225.135792,6661.853478,5477.523971,-75077.358804
1225.138354,5921.647536,20133.601622,-72779.072310
1225.140916,-2220.617826,-17912.983796,-74004.825107
1225.143478,11547.212695,23982.672521,-71400.100414
1225.146040,-1628.453072,-5033.400406,-72166.195912
1225.148602,3552.988522,-3552.988522,-74770.920605
1225.151163,6217.729913,9326.594869,-72319.415011
1225.153725,-888.247130,592.164754,-73698.386908
1225.156287,5921.647536,2368.659014,-72625.853210
1225.158849,3108.864956,4737.318029,-72319.415011
1225.161411,2664.741391,-1480.411884,-72932.291410
1225.163973,5329.482782,4441.235652,-73851.606007
1225.166535,-444.123565,-2072.576638,-73391.948708
1225.169096,2072.576638,2516.700203,-73238.729609
1225.171658,5329.482782,2812.782580,-74004.825107
1225.174220,888.247130,-7105.977043,-73698.386908
1225.176782,5033.400406,2812.782580,-73851.606007
1225.179344,-888.247130,-9770.718434,-72932.291410
1225.181906,1776.494261,-8882.471304,-72166.195912
1225.184467,2072.576638,-1628.453072,-73391.948708
1225.187029,1628.453072,-7254.018232,-72932.291410
1225.189591,4441.235652,444.123565,-73391.948708
1225.192153,2220.617826,-888.247130,-73391.948708
1225.194715,-740.205942,-7105.977043,-73545.167808
1225.197277,5477.523971,-2516.700203,-73545.167808
1225.199839,1332.370696,-2812.782580,-72166.195912
1225.202409,4441.235652,-3552.988522,-72625.853210
1225.204979,4145.153275,444.123565,-72319.415011
1225.207550,1628.453072,11103.089130,-72932.291410
1225.210120,3552.988522,-888.247130,-73698.386908
1225.212691,1332.370696,-8734.430116,-72166.195912
1225.215261,4293.194464,-9030.512492,-72932.291410
1225.217831,4441.235652,-2220.617826,-73391.948708
1225.220402,-1924.535449,-3849.070898,-73391.948708
1225.222972,3256.906145,-4885.359217,-72166.195912
1225.225542,8438.347739,888.247130,-72166.195912
1225.228113,2072.576638,-8290.306550,-73085.510509
1225.230683,740.205942,-7846.182985,-73698.386908
1225.233254,3108.864956,444.123565,-72319.415011
1225.235824,740.205942,-8734.430116,-72779.072310
1225.238394,5033.400406,-4737.318029,-73545.167808
1225.240965,2368.659014,-8290.306550,-72779.072310
1225.243535,3552.988522,-4589.276840,-73238.729609
1225.246106,-148.041188,-5329.482782,-73085.510509
1225.248676,1924.535449,888.247130,-73085.510509
1225.251246,3701.029710,3552.988522,-73391.948708
1225.253817,2368.659014,2220.617826,-73698.386908
1225.256387,4145.153275,8290.306550,-73545.167808
1225.258958,1036.288319,-444.123565,-72625.853210
1225.261528,4885.359217,5033.400406,-73085.510509
1225.264098,3404.947333,3552.988522,-73238.729609
1225.266669,1776.494261,-7846.182985,-74464.482406
1225.269239,4293.194464,5921.647536,-73391.948708
1225.271810,1776.494261,4885.359217,-72472.634111
1225.274380,2960.823768,3997.112087,-72625.853210
1225.276950,2960.823768,8586.388927,-72319.415011
1225.279521,4145.153275,1184.329507,-74464.482406
1225.282091,888.247130,3849.070898,-74464.482406
1225.284661,5921.647536,7254.018232,-72625.853210
1225.287232,4885.359217,12583.501014,-72779.072310
1225.289802,-592.164754,-6513.812290,-71553.319513
1225.292373,5329.482782,-296.082377,-73698.386908
1225.294943,5181.441594,26351.331535,-73238.729609
1225.297513,-3552.988522,-15248.242405,-73391.948708
1225.300084,6513.812290,17764.942608,-74464.482406
1225.302654,-2368.659014,9178.553681,-72932.291410
1225.305170,6217.729913,-7550.100608,-73545.167808
1225.307687,8734.430116,14063.912898,-72932.291410
1225.310203,-2072.576638,296.082377,-73698.386908
1225.312719,6069.688724,-148.041188,-74004.825107
1225.315236,3256.906145,8586.388927,-73238.729609
1225.317752,740.205942,-3701.029710,-73238.729609
1225.320268,6217.729913,9178.553681,-72625.853210
1225.322784,-1184.329507,-3849.070898,-72625.853210
1225.325301,3552.988522,5625.565159,-74158.044206
1225.327817,3849.070898,6809.894666,-74004.825107
1225.330333,1776.494261,-6809.894666,-74004.825107
1225.332850,4885.359217,148.041188,-73545.167808
1225.335366,1332.370696,-5329.482782,-72932.291410
1225.337882,-148.041188,-11103.089130,-72472.634111
1225.340398,3997.112087,-2812.782580,-72319.415011
1225.342915,1480.411884,-7105.977043,-73698.386908
1225.345431,2664.741391,-3849.070898,-73545.167808
1225.347947,444.123565,-3108.864956,-73391.948708
1225.350464,592.164754,-6513.812290,-73238.729609
1225.352980,3256.906145,-4145.153275,-72779.072310
1225.355496,1924.535449,-5773.606348,-73391.948708
1225.358012,6513.812290,-8586.388927,-73238.729609
1225.360529,-1628.453072,-3404.947333,-74004.825107
1225.363045,1776.494261,-17468.860231,-72472.634111
1225.365561,3849.070898,-2220.617826,-72932.291410
1225.368077,8438.347739,9178.553681,-73085.510509
1225.370594,4589.276840,8438.347739,-73851.606007
1225.373110,-2072.576638,-20429.683999,-73085.510509
1225.375626,5329.482782,6513.812290,-72779.072310
1225.378143,5477.523971,-2812.782580,-72932.291410
1225.380659,-148.041188,-16580.613101,-72625.853210
1225.383175,6513.812290,9770.718434,-72166.195912
1225.385691,1628.453072,444.123565,-73545.167808
1225.388208,-740.205942,-15692.365970,-73545.167808
1225.390724,5921.647536,6217.729913,-72166.195912
1225.393240,592.164754,-11251.130318,-73391.948708
1225.395757,5033.400406,-7402.059420,-73698.386908
1225.398273,740.205942,1184.329507,-72779.072310
1225.400789,444.123565,-9326.594869,-72625.853210
1225.403305,3849.070898,3997.112087,-72779.072310
1225.405840,3404.947333,3256.906145,-73391.948708
1225.408374,4885.359217,9178.553681,-73085.510509
1225.410908,888.247130,2516.700203,-72472.634111
1225.413443,1480.411884,-296.082377,-72779.072310
1225.415977,2960.823768,7402.059420,-72932.291410
1225.418511,1924.535449,-5329.482782,-73391.948708
1225.421046,4441.235652,-1184.329507,-73545.167808
1225.423580,2812.782580,2960.823768,-73085.510509
1225.426114,1332.370696,2220.617826,-73085.510509
1225.428649,5773.606348,10066.800811,-73238.729609
1225.431183,1480.411884,592.164754,-74158.044206
1225.433717,5181.441594,-1184.329507,-73391.948708
1225.436252,1184.329507,-888.247130,-74464.482406
1225.438786,2220.617826,-12435.459826,-72625.853210
1225.441320,8290.306550,14211.954086,-71400.100414
1225.443854,-1628.453072,-4145.153275,-72625.853210
1225.446389,4145.153275,148.041188,-73545.167808
1225.448923,8882.471304,14063.912898,-73238.729609
1225.451457,-3997.112087,-9622.677246,-74770.920605
1225.453992,7254.018232,13767.830521,-72779.072310
1225.456526,-148.041188,1036.288319,-72012.976812
1225.459060,3701.029710,3404.947333,-73085.510509
1225.461595,3404.947333,10807.006753,-73391.948708
1225.464129,1036.288319,-3701.029710,-74464.482406
1225.466663,5773.606348,2220.617826,-74004.825107
1225.469198,3256.906145,4589.276840,-72932.291410
1225.471732,2368.659014,-740.205942,-73391.948708
1225.474266,2664.741391,2960.823768,-71706.538613
1225.476801,2072.576638,7254.018232,-73085.510509
1225.479335,2368.659014,2664.741391,-73698.386908
1225.481869,4293.194464,-6809.894666,-73698.386908
1225.484404,5033.400406,2516.700203,-73698.386908
1225.486938,740.205942,-9178.553681,-72625.853210
1225.489472,148.041188,-9326.594869,-72319.415011
1225.492006,2960.823768,-2220.617826,-72012.976812
1225.494541,2220.617826,-6217.729913,-73391.948708
1225.497075,3849.070898,-888.247130,-73698.386908
1225.499609,1480.411884,-6365.771101,-73545.167808
1225.502144,2960.823768,-3552.988522,-72779.072310
1225.504678,2664.741391,-1776.494261,-72932.291410
1225.507227,1628.453072,-4737.318029,-74158.044206
1225.509775,3108.864956,-2072.576638,-73851.606007
1225.512324,2812.782580,5625.565159,-72779.072310
1225.514872,148.041188,-14359.995275,-74158.044206
1225.517421,1036.288319,1036.288319,-74464.482406
1225.519969,2220.617826,1628.453072,-73085.510509
1225.522518,-2664.741391,-20429.683999,-72779.072310
1225.525066,-444.123565,-9030.512492,-73085.510509
1225.527615,1776.494261,2072.576638,-75690.235202
1225.530163,-444.123565,-15692.365970,-73698.386908
1225.532712,2812.782580,1924.535449,-73085.510509
1225.535260,3552.988522,-1776.494261,-72472.634111
1225.537809,-2516.700203,-12287.418637,-73851.606007
1225.540358,4293.194464,1184.329507,-73391.948708
1225.542906,1332.370696,-9622.677246,-74158.044206
1225.545455,2072.576638,-12139.377449,-73391.948708
1225.548003,2960.823768,1924.535449,-72625.853210
1225.550552,-296.082377,-7550.100608,-72779.072310
1225.553100,3256.906145,2664.741391,-72779.072310
1225.555649,3552.988522,0.000000,-73391.948708
1225.558197,3404.947333,6957.935855,-74158.044206
1225.560746,3552.988522,3997.112087,-73238.729609
1225.563294,1036.288319,-1332.370696,-73391.948708
1225.565843,3701.029710,5329.482782,-72319.415011
1225.568391,2960.823768,-888.247130,-74158.044206
1225.570940,5181.441594,-2516.700203,-72625.853210
1225.573488,4293.194464,148.041188,-73085.510509
1225.576037,1924.535449,8438.347739,-72932.291410
1225.578586,3404.947333,2220.617826,-72932.291410
1225.581134,2812.782580,8734.430116,-73851.606007
1225.583683,5033.400406,2516.700203,-74004.825107
1225.586231,-2368.659014,-7550.100608,-74004.825107
1225.588790,4885.359217,-13027.624579,-73085.510509
1225.591350,7550.100608,23982.672521,-70940.443115
1225.593909,-3701.029710,-7846.182985,-72932.291410
1225.596468,5033.400406,-15988.448347,-72472.634111
1225.599028,4441.235652,23094.425390,-74464.482406
1225.601587,3404.947333,-13767.830521,-72166.195912
1225.604146,3404.947333,-5477.523971,-73545.167808
1225.606706,4441.235652,16580.613101,-71859.757712
1225.609265,2812.782580,-4885.359217,-72932.291410
1225.611824,4441.235652,9178.553681,-73391.948708
1225.614384,2220.617826,2812.782580,-73545.167808
1225.616943,3256.906145,-7698.141797,-73391.948708
1225.619502,3701.029710,7994.224174,-73391.948708
1225.622062,0.000000,-5477.523971,-72779.072310
1225.624621,4589.276840,3997.112087,-72779.072310
1225.627180,740.205942,8586.388927,-72625.853210
1225.629740,1480.411884,-6365.771101,-74004.825107
1225.632299,8734.430116,1924.535449,-74158.044206
1225.634858,1628.453072,-5477.523971,-73238.729609
1225.637418,444.123565,-14804.118840,-72779.072310
1225.639977,1184.329507,-3256.906145,-72012.976812
1225.642536,1628.453072,-5921.647536,-73238.729609
1225.645096,3701.029710,-4441.235652,-73085.510509
1225.647655,2664.741391,296.082377,-74464.482406
1225.650215,1776.494261,-4589.276840,-74158.044206
1225.652774,-444.123565,-6217.729913,-72472.634111
1225.655333,2072.576638,-6661.853478,-73085.510509
1225.657893,592.164754,-1036.288319,-73698.386908
1225.660452,4589.276840,-7402.059420,-73545.167808
1225.663011,6217.729913,-11695.253884,-73545.167808
1225.665571,10955.047942,13323.706956,-71246.881314
1225.668130,1184.329507,-6661.853478,-73238.729609
1225.670689,-1332.370696,-2812.782580,-73238.729609
1225.673249,1332.370696,-6365.771101,-74004.825107
1225.675808,0.000000,3256.906145,-73851.606007
1225.678367,2664.741391,-8586.388927,-74311.263306
1225.680927,4737.318029,-4885.359217,-73851.606007
1225.683486,4589.276840,-740.205942,-72779.072310
1225.686045,1480.411884,-7994.224174,-73238.729609
1225.688605,2072.576638,-4441.235652,-72932.291410
1225.691171,2220.617826,296.082377,-73545.167808
1225.693738,3404.947333,-10955.047942,-73238.729609
1225.696305,2516.700203,-2368.659014,-73085.510509
1225.698872,296.082377,-4145.153275,-73238.729609
1225.701438,3701.029710,-888.247130,-72166.195912
1225.704005,6069.688724,5329.482782,-72625.853210
1225.706572,1628.453072,8734.430116,-73698.386908
1225.709139,1036.288319,4441.235652,-73085.510509
1225.711705,4293.194464,1776.494261,-73238.729609
1225.714272,3997.112087,4441.235652,-73851.606007
1225.716839,4589.276840,-1184.329507,-73698.386908
1225.719406,5477.523971,-1184.329507,-72472.634111
1225.721973,1332.370696,-296.082377,-72625.853210
1225.724539,2960.823768,8142.265362,-72779.072310
1225.727106,4589.276840,3849.070898,-73238.729609
1225.729673,1776.494261,8734.430116,-74464.482406
1225.732240,5773.606348,2664.741391,-74464.482406
1225.734806,1184.329507,-4293.194464,-73238.729609
1225.737373,3404.947333,-13175.665768,-71859.757712
1225.739940,6809.894666,30940.608376,-71706.538613
1225.742507,-5181.441594,-33901.432144,-72166.195912
1225.745073,5181.441594,17320.819043,-76303.111601
1225.747640,1332.370696,14656.077652,-73391.948708
1225.750207,148.041188,-16728.654289,-75077.358804
1225.752774,10066.800811,24574.837274,-72319.415011
1225.755340,148.041188,-8734.430116,-73238.729609
1225.757907,5921.647536,10658.965565,-73545.167808
1225.760474,2664.741391,4737.318029,-72625.853210
1225.763041,-148.041188,-12583.501014,-74464.482406
1225.765608,6513.812290,9178.553681,-72166.195912
1225.768174,-2220.617826,-3552.988522,-71859.757712
1225.770741,3849.070898,2368.659014,-73238.729609
1225.773308,1776.494261,10658.965565,-72779.072310
1225.775875,1776.494261,-3997.112087,-72779.072310
1225.778441,6365.771101,-3256.906145,-74158.044206
1225.781008,2812.782580,-2960.823768,-74311.263306
1225.783575,-2368.659014,-16136.489536,-73238.729609
1225.786142,2664.741391,-5181.441594,-71553.319513
1225.788708,2664.741391,-3849.070898,-71859.757712
1225.791275,1184.329507,-4441.235652,-74158.044206
1225.793848,4885.359217,444.123565,-73698.386908
1225.796421,740.205942,-3701.029710,-73851.606007
1225.798994,2220.617826,-4885.359217,-74004.825107
1225.801567,3404.947333,-4293.194464,-72472.634111
1225.804140,1332.370696,-6365.771101,-72779.072310
1225.806713,2072.576638,-5625.565159,-74311.263306
1225.809286,4145.153275,148.041188,-73851.606007
1225.811859,6957.935855,4145.153275,-72166.195912
1225.814432,740.205942,-6365.771101,-72779.072310
1225.817005,5329.482782,19689.478057,-72932.291410
1225.819578,-1184.329507,-18209.066173,-73391.948708
1225.822151,3701.029710,-15988.448347,-71093.662214
1225.824724,7254.018232,7846.182985,-72166.195912
1225.827297,-1924.535449,-13915.871710,-74004.825107
1225.829869,1628.453072,-9178.553681,-74004.825107
1225.832442,2812.782580,2664.741391,-73085.510509
1225.835015,296.082377,-15840.407159,-73238.729609
1225.837588,5181.441594,2368.659014,-73085.510509
1225.840161,1184.329507,-9918.759623,-73085.510509
1225.842734,1480.411884,-8882.471304,-73698.386908
1225.845307,3849.070898,3108.864956,-73085.510509
1225.847880,444.123565,-6957.935855,-72779.072310
1225.850453,6513.812290,12139.377449,-73698.386908
1225.853026,3849.070898,4293.194464,-72625.853210
1225.855599,1924.535449,4441.235652,-72166.195912
1225.858172,1924.535449,6957.935855,-73238.729609
1225.860745,1776.494261,-444.123565,-74158.044206
1225.863318,1776.494261,1184.329507,-73698.386908
1225.865891,4293.194464,3404.947333,-72932.291410
1225.868464,2664.741391,296.082377,-71859.757712
1225.871037,2220.617826,9474.636058,-72779.072310
1225.873610,4737.318029,3404.947333,-73545.167808
1225.876183,740.205942,7550.100608,-74617.701505
1225.878755,8734.430116,7994.224174,-73698.386908
1225.881328,2812.782580,11399.171507,-73085.510509
1225.883901,1480.411884,-7846.182985,-70940.443115
1225.886474,4293.194464,1036.288319,-72932.291410
1225.889047,3552.988522,18061.024985,-73545.167808
1225.891620,1332.370696,-7254.018232,-74311.263306
1225.894193,3849.070898,3552.988522,-73085.510509
1225.896770,2812.782580,14804.118840,-72472.634111
1225.899346,2516.700203,-7698.141797,-72472.634111
1225.901922,4737.318029,3256.906145,-72932.291410
1225.904499,740.205942,8882.471304,-74158.044206
1225.907075,4737.318029,-7402.059420,-73545.167808
1225.909652,4589.276840,4885.359217,-73085.510509
1225.912228,1776.494261,1332.370696,-73085.510509
1225.914804,5033.400406,3404.947333,-72779.072310
1225.917381,296.082377,7105.977043,-72779.072310
1225.919957,4293.194464,1480.411884,-72779.072310
1225.922533,4145.153275,-7254.018232,-72932.291410
1225.925110,3256.906145,2368.659014,-73391.948708
1225.927686,740.205942,-14804.118840,-73085.510509
1225.930263,1480.411884,-9770.718434,-72472.634111
1225.932839,1776.494261,-1332.370696,-72625.853210
1225.935415,2220.617826,-6661.853478,-72932.291410
1225.937992,3849.070898,-296.082377,-74004.825107
1225.940568,1036.288319,-6069.688724,-73698.386908
1225.943145,1184.329507,-7994.224174,-73391.948708
1225.945721,4589.276840,-1924.535449,-72012.976812
1225.948297,2812.782580,-10214.842000,-72012.976812
1225.950874,2072.576638,-13175.665768,-74464.482406
1225.953450,2368.659014,-1628.453072,-73698.386908
1225.956027,8290.306550,8142.265362,-71706.538613
1225.958603,2812.782580,-22206.178260,-72779.072310
1225.961179,4293.194464,10658.965565,-73851.606007
1225.963756,12139.377449,7402.059420,-70634.004916
1225.966332,-148.041188,-25315.043216,-73391.948708
1225.968909,1924.535449,6365.771101,-73238.729609
1225.971485,3701.029710,-5625.565159,-74770.920605
1225.974061,-1332.370696,-10066.800811,-74770.920605
1225.976638,4293.194464,2072.576638,-72932.291410
1225.979214,1776.494261,-14211.954086,-72779.072310
1225.981790,2220.617826,-13027.624579,-72932.291410
1225.984367,4441.235652,740.205942,-73238.729609
1225.986943,-1184.329507,-7254.018232,-73238.729609
1225.989520,4589.276840,1184.329507,-73238.729609
1225.992096,5477.523971,-1184.329507,-73698.386908
1225.994672,2516.700203,7994.224174,-73391.948708
1225.997249,4293.194464,4885.359217,-72319.415011
1225.999828,740.205942,296.082377,-72625.853210
1226.002407,1776.494261,5329.482782,-72779.072310
1226.004986,5329.482782,-2516.700203,-74158.044206
1226.007565,3256.906145,-592.164754,-73545.167808
1226.010144,4145.153275,296.082377,-72166.195912
1226.012723,2516.700203,7698.141797,-72932.291410
1226.015302,1480.411884,1036.288319,-72472.634111
1226.017881,5033.400406,4293.194464,-72932.291410
1226.020460,-740.205942,4737.318029,-75383.797003
1226.023039,3997.112087,12879.583391,-74158.044206
1226.025618,148.041188,-11103.089130,-73391.948708
1226.028197,4293.194464,3256.906145,-72472.634111
1226.030776,3701.029710,20133.601622,-72319.415011
1226.033355,1184.329507,-8438.347739,-73085.510509
1226.035934,3552.988522,12731.542202,-74770.920605
1226.038513,2220.617826,6069.688724,-74464.482406
1226.041092,2220.617826,888.247130,-72779.072310
1226.043671,3997.112087,3997.112087,-72779.072310
1226.046250,2368.659014,3108.864956,-72319.415011
1226.048829,4589.276840,1924.535449,-73698.386908
1226.051408,5477.523971,-740.205942,-73851.606007
1226.053987,1628.453072,3108.864956,-72625.853210
1226.056566,5477.523971,4293.194464,-73238.729609
1226.059145,-444.123565,5329.482782,-72932.291410
1226.061724,3701.029710,3108.864956,-73545.167808
1226.064303,5033.400406,-6809.894666,-73391.948708
1226.066882,2812.782580,-1776.494261,-74158.044206
1226.069461,1036.288319,-10362.883188,-73238.729609
1226.072040,1036.288319,-12435.459826,-72932.291410
1226.074619,1776.494261,-444.123565,-73851.606007
1226.077198,2664.741391,-7402.059420,-72625.853210
1226.079777,2072.576638,740.205942,-73545.167808
1226.082356,1332.370696,-4737.318029,-73391.948708
1226.084935,1480.411884,-7105.977043,-73545.167808
1226.087514,3256.906145,-6661.853478,-73085.510509
1226.090093,-2516.700203,-5773.606348,-74617.701505
1226.092672,4441.235652,1628.453072,-72166.195912
1226.095251,1036.288319,-16876.695478,-72319.415011
1226.097830,5181.441594,8586.388927,-74770.920605
1226.100409,0.000000,-6513.812290,-74158.044206
1226.102988,-2368.659014,-26055.249158,-72779.072310
1226.105569,888.247130,6513.812290,-74617.701505
1226.108149,740.205942,-1924.535449,-73238.729609
1226.110729,3108.864956,-17616.901420,-73085.510509
1226.113310,5329.482782,10658.965565,-72625.853210
1226.115890,148.041188,-16876.695478,-74464.482406
1226.118470,4441.235652,-4589.276840,-73391.948708
1226.121051,0.000000,-2812.782580,-73085.510509
1226.123631,1184.329507,-11991.336260,-72932.291410
1226.126211,3108.864956,148.041188,-72319.415011
1226.128792,296.082377,-1480.411884,-72779.072310
1226.131372,5773.606348,-6069.688724,-73391.948708
1226.133952,4441.235652,12139.377449,-74004.825107
1226.136533,1776.494261,2072.576638,-73698.386908
1226.139113,1184.329507,2960.823768,-72625.853210
1226.141693,2812.782580,7105.977043,-72472.634111
1226.144274,1776.494261,-1332.370696,-72932.291410
1226.146854,2960.823768,2220.617826,-73238.729609
1226.149434,2960.823768,148.041188,-73545.167808
1226.152015,2072.576638,5181.441594,-72625.853210
1226.154595,1776.494261,3997.112087,-72625.853210
1226.157175,4145.153275,5033.400406,-73698.386908
1226.159756,148.041188,5329.482782,-74617.701505
1226.162336,1924.535449,-592.164754,-73238.729609
1226.164917,1184.329507,-9326.594869,-72472.634111
1226.167497,4737.318029,5625.565159,-73238.729609
1226.170077,1924.535449,16728.654289,-72166.195912
1226.172658,1480.411884,-7550.100608,-72472.634111
1226.175238,4737.318029,17468.860231,-75077.358804
1226.177818,1480.411884,1480.411884,-74158.044206
1226.180399,3108.864956,4441.235652,-73545.167808
1226.182979,5773.606348,8142.265362,-72932.291410
1226.185559,2220.617826,-1184.329507,-72166.195912
1226.188140,3552.988522,9326.594869,-72932.291410
1226.190720,4145.153275,-2220.617826,-73085.510509
1226.193300,1036.288319,148.041188,-73238.729609
1226.195881,5181.441594,7994.224174,-73238.729609
1226.198461,-296.082377,3404.947333,-73391.948708
1226.201041,5033.400406,2220.617826,-73545.167808
1226.203622,3849.070898,-7402.059420,-74004.825107
1226.206203,1184.329507,-2516.700203,-73085.510509
1226.208785,1036.288319,-9622.677246,-72472.634111
1226.211367,740.205942,-12435.459826,-73238.729609
1226.213948,2664.741391,-444.123565,-73238.729609
1226.216530,2960.823768,-6661.853478,-73698.386908
1226.219111,2812.782580,3108.864956,-73391.948708
1226.221693,2220.617826,-7994.224174,-73545.167808
1226.224275,2812.782580,-8882.471304,-73545.167808
1226.226856,888.247130,1480.411884,-72625.853210
1226.229438,3997.112087,-9918.759623,-72625.853210
1226.232020,6217.729913,10362.883188,-72625.853210
1226.234601,-148.041188,-3404.947333,-73851.606007
1226.237183,1036.288319,-13767.830521,-73391.948708
1226.239764,8142.265362,28127.825796,-73851.606007
1226.242346,-148.041188,-22650.301825,-73238.729609
1226.244928,-592.164754,-18949.272115,-72166.195912
1226.247509,7550.100608,15396.283594,-71400.100414
1226.250091,-2812.782580,-23834.631332,-74464.482406
1226.252673,2812.782580,1480.411884,-73391.948708
1226.255254,592.164754,-2368.659014,-74924.139704
1226.257836,3404.947333,-15840.407159,-74158.044206
1226.260417,4441.235652,1332.370696,-72166.195912
1226.262999,1036.288319,-5033.400406,-72779.072310
1226.265581,3108.864956,-5033.400406,-72472.634111
1226.268162,2516.700203,2220.617826,-73545.167808
1226.270744,3701.029710,4293.194464,-75383.797003
1226.273326,4589.276840,9030.512492,-73238.729609
1226.275907,148.041188,3701.029710,-73391.948708
1226.278489,3701.029710,2368.659014,-72166.195912
1226.281070,3108.864956,6365.771101,-73085.510509
1226.283652,2960.823768,2516.700203,-73851.606007
1226.286234,4441.235652,-4293.194464,-72779.072310
1226.288815,740.205942,5181.441594,-73085.510509
1226.291397,2812.782580,6957.935855,-72012.976812
1226.293979,1924.535449,4885.359217,-74158.044206
1226.296560,2664.741391,3404.947333,-74464.482406
1226.299142,4145.153275,-148.041188,-73391.948708
1226.301723,2220.617826,444.123565,-72932.291410
1226.304305,3404.947333,4885.359217,-73391.948708
1226.306887,3256.906145,11843.295072,-71859.757712
1226.309468,1480.411884,-5773.606348,-72319.415011
1226.312050,4737.318029,14804.118840,-74158.044206
1226.314631,1628.453072,3256.906145,-75077.358804
1226.317212,3108.864956,7254.018232,-73545.167808
1226.319794,4293.194464,2812.782580,-72319.415011
1226.322375,1628.453072,0.000000,-72625.853210
1226.324957,1480.411884,13915.871710,-73085.510509
1226.327538,3404.947333,-2664.741391,-72932.291410
1226.330119,1924.535449,148.041188,-72472.634111
1226.332701,2960.823768,12879.583391,-73698.386908
1226.335282,1628.453072,-4293.194464,-73238.729609
1226.337864,6661.853478,7994.224174,-73698.386908
1226.340445,3108.864956,-10214.842000,-74004.825107
1226.343026,740.205942,-8142.265362,-73238.729609
1226.345608,1776.494261,-7105.977043,-72012.976812
1226.348189,-296.082377,-12879.583391,-73238.729609
1226.350771,5329.482782,-888.247130,-73238.729609
1226.353352,740.205942,-8142.265362,-74004.825107
1226.355933,3256.906145,3849.070898,-73545.167808
1226.358515,1184.329507,-7994.224174,-73238.729609
1226.361096,1184.329507,-6513.812290,-72625.853210
1226.363678,2960.823768,296.082377,-72166.195912
1226.366259,1924.535449,-11991.336260,-71859.757712
1226.368840,2664.741391,-14211.954086,-72012.976812
1226.371422,4737.318029,10214.842000,-73391.948708
1226.374003,-444.123565,-21465.972318,-74617.701505
1226.376585,4589.276840,-9030.512492,-73238.729609
1226.379166,9030.512492,6957.935855,-72012.976812
1226.381747,-1184.329507,-28127.825796,-73391.948708
1226.384329,-1184.329507,-14508.036463,-73851.606007
1226.386910,4145.153275,11251.130318,-72779.072310
1226.389492,1184.329507,-21614.013506,-73085.510509
1226.392073,7994.224174,5625.565159,-72625.853210
1226.394655,148.041188,-11695.253884,-74464.482406
1226.397236,1480.411884,-5329.482782,-73545.167808
1226.399817,444.123565,-3701.029710,-72012.976812
1226.402399,592.164754,-2368.659014,-72779.072310
1226.404980,6957.935855,444.123565,-73238.729609
1226.407562,3108.864956,8438.347739,-74464.482406
1226.410143,2812.782580,5477.523971,-73545.167808
1226.412724,2516.700203,-2368.659014,-72779.072310
1226.415305,3997.112087,11695.253884,-73085.510509
1226.417886,2960.823768,1184.329507,-73238.729609
1226.420467,2664.741391,-2220.617826,-73698.386908
1226.423048,1776.494261,6661.853478,-72932.291410
1226.425630,4885.359217,2812.782580,-72319.415011
1226.428211,2072.576638,7105.977043,-73545.167808
1226.430792,4145.153275,4145.153275,-73085.510509
1226.433373,2812.782580,-888.247130,-74158.044206
1226.435954,1924.535449,-15248.242405,-72779.072310
1226.438535,9030.512492,37602.461854,-72166.195912
1226.441116,-6957.935855,-39230.914926,-72012.976812
1226.443697,-4293.194464,-2812.782580,-74311.263306
1226.446278,12879.583391,27979.784608,-71553.319513
1226.448859,2368.659014,-16580.613101,-72932.291410
1226.451441,5625.565159,17468.860231,-73851.606007
1226.454022,888.247130,444.123565,-73698.386908
1226.456603,3552.988522,-2368.659014,-72625.853210
1226.459184,5921.647536,18061.024985,-71706.538613
1226.461765,-1480.411884,-7846.182985,-72625.853210
1226.464346,4885.359217,2368.659014,-73085.510509
1226.466927,1924.535449,8734.430116,-72472.634111
1226.469508,-1036.288319,-1480.411884,-73698.386908
1226.472089,6809.894666,4293.194464,-74464.482406
1226.474670,1924.535449,-10362.883188,-74311.263306
1226.477251,1924.535449,-1628.453072,-73698.386908
1226.479833,296.082377,-9474.636058,-72779.072310
1226.482414,-592.164754,-14359.995275,-72625.853210
1226.484995,5625.565159,-1776.494261,-72625.853210
1226.487576,2220.617826,-4737.318029,-73085.510509
1226.490157,3256.906145,1036.288319,-74158.044206
1226.492738,1480.411884,-5921.647536,-73545.167808
1226.495319,1924.535449,-10658.965565,-73238.729609
1226.497900,1184.329507,3108.864956,-73085.510509
1226.500481,3404.947333,3552.988522,-72932.291410
1226.503062,3552.988522,3552.988522,-72779.072310
1226.505644,1332.370696,-4589.276840,-72166.195912
1226.508225,2812.782580,3849.070898,-72932.291410
1226.510806,1776.494261,-13915.871710,-73851.606007
1226.513387,-3256.906145,2072.576638,-74924.139704
1226.515968,1036.288319,-7550.100608,-74004.825107
1226.518548,1036.288319,-9030.512492,-72932.291410
1226.521129,1480.411884,-1776.494261,-72319.415011
1226.523710,3108.864956,-5329.482782,-73698.386908
1226.526290,1036.288319,-8734.430116,-74004.825107
1226.528871,3108.864956,-4885.359217,-73698.386908
1226.531452,592.164754,-6661.853478,-73238.729609
1226.534033,2220.617826,-1628.453072,-72625.853210
1226.536613,2960.823768,-592.164754,-73698.386908
1226.539194,5329.482782,7105.977043,-73545.167808
1226.541775,3256.906145,7550.100608,-72932.291410
1226.544356,1628.453072,3997.112087,-72625.853210
1226.546936,2368.659014,6661.853478,-73238.729609
1226.549517,1628.453072,1480.411884,-73391.948708
1226.552098,2516.700203,6661.853478,-73851.606007
1226.554678,4885.359217,-4737.318029,-73085.510509
1226.557259,1480.411884,8290.306550,-72472.634111
1226.559840,3849.070898,2368.659014,-73085.510509
1226.562421,3108.864956,-1332.370696,-73085.510509
1226.565001,2960.823768,5033.400406,-73391.948708
1226.567582,-2368.659014,-17468.860231,-74464.482406
1226.570163,9622.677246,16728.654289,-72166.195912
1226.572744,444.123565,-3849.070898,-73238.729609
1226.575324,6217.729913,11695.253884,-73238.729609
1226.577905,148.041188,4589.276840,-74770.920605
1226.580486,6661.853478,4589.276840,-72166.195912
1226.583066,5477.523971,4589.276840,-73391.948708
1226.585647,1184.329507,7550.100608,-72625.853210
1226.588228,4737.318029,444.123565,-73545.167808
1226.590809,2664.741391,9030.512492,-72319.415011
1226.593389,2664.741391,2072.576638,-73085.510509
1226.595970,6365.771101,296.082377,-73085.510509
1226.598551,-592.164754,3256.906145,-73085.510509
1226.601132,3256.906145,740.205942,-72932.291410
1226.603712,4885.359217,1480.411884,-73851.606007
1226.606293,3997.112087,-6513.812290,-73238.729609
1226.608874,2812.782580,-4885.359217,-73085.510509
1226.611454,296.082377,-10066.800811,-72166.195912
1226.614035,2368.659014,-12731.542202,-72472.634111
1226.616616,3552.988522,-1184.329507,-72932.291410
1226.619195,148.041188,-7994.224174,-74464.482406
1226.621774,3404.947333,3404.947333,-73391.948708
1226.624353,-296.082377,-5329.482782,-73698.386908
1226.626933,1480.411884,-6513.812290,-73698.386908
1226.629512,2664.741391,-7698.141797,-73085.510509
1226.632091,1184.329507,-18061.024985,-73545.167808
1226.634670,5921.647536,11103.089130,-72625.853210
1226.637249,1332.370696,-3256.906145,-72625.853210
1226.639828,-592.164754,-13027.624579,-74770.920605
1226.642408,5181.441594,592.164754,-73085.510509
1226.644987,5477.523971,-592.164754,-72932.291410
1226.647566,148.041188,-15396.283594,-73238.729609
1226.650145,3997.112087,-2072.576638,-72625.853210
1226.652724,2368.659014,-592.164754,-72319.415011
1226.655303,3849.070898,-16876.695478,-73391.948708
1226.657883,4737.318029,4885.359217,-73238.729609
1226.660462,740.205942,-15544.324782,-73545.167808
1226.663041,1332.370696,-8734.430116,-72932.291410
1226.665620,2664.741391,8142.265362,-72166.195912
1226.668199,2516.700203,-5033.400406,-74464.482406
1226.670778,4145.153275,13323.706956,-72779.072310
1226.673358,2516.700203,5329.482782,-73238.729609
1226.675937,2220.617826,-1184.329507,-72779.072310
1226.678516,3701.029710,13323.706956,-72932.291410
1226.681095,3256.906145,148.041188,-72932.291410
1226.683674,4145.153275,-1036.288319,-72625.853210
1226.686253,4737.318029,6365.771101,-72472.634111
1226.688833,2368.659014,2960.823768,-72166.195912
1226.691412,2368.659014,12287.418637,-73085.510509
1226.693991,6957.935855,-5625.565159,-73238.729609
1226.696570,3108.864956,-7846.182985,-74158.044206
1226.699149,7254.018232,16580.613101,-72779.072310
1226.701729,1628.453072,-11103.089130,-72319.415011
1226.704308,-3552.988522,-16432.571912,-72625.853210
1226.706887,7698.141797,17468.860231,-73085.510509
1226.709466,296.082377,-4737.318029,-75383.797003
1226.712045,3256.906145,1924.535449,-74004.825107
1226.714624,7698.141797,15100.201217,-71859.757712
1226.717204,3108.864956,-6217.729913,-73238.729609
1226.719783,3108.864956,13027.624579,-72932.291410
1226.722361,2664.741391,-2664.741391,-72625.853210
1226.724939,3849.070898,-2072.576638,-72166.195912
1226.727518,3997.112087,9622.677246,-73698.386908
1226.730096,592.164754,-888.247130,-73085.510509
1226.732675,5921.647536,4589.276840,-73085.510509
1226.735253,3997.112087,-7254.018232,-73391.948708
1226.737831,1480.411884,-5329.482782,-73851.606007
1226.740410,1036.288319,-10807.006753,-72012.976812
1226.742988,-1184.329507,-11695.253884,-72472.634111
1226.745566,4145.153275,-1628.453072,-73085.510509
1226.748145,1332.370696,-6365.771101,-74464.482406
1226.750723,3108.864956,1776.494261,-73545.167808
1226.753301,1628.453072,-6365.771101,-73391.948708
1226.755880,1036.288319,-4293.194464,-73698.386908
1226.758458,296.082377,-8734.430116,-74464.482406
1226.761037,4737.318029,-18061.024985,-72166.195912
1226.763615,2368.659014,-10955.047942,-74158.044206
1226.766193,9326.594869,30200.402434,-72625.853210
1226.768772,-2516.700203,-38342.667796,-72472.634111
1226.771350,5921.647536,8438.347739,-73238.729609
1226.773928,-3256.906145,148.041188,-75843.454302
1226.776507,-3256.906145,-27535.661042,-75077.358804
1226.779085,4441.235652,19985.560434,-70480.785816
1226.781663,444.123565,-18061.024985,-74311.263306
1226.784242,3256.906145,-23242.466579,-74464.482406
1226.786820,5625.565159,7846.182985,-70787.224015
1226.789399,888.247130,-18061.024985,-72932.291410
1226.791977,1924.535449,-296.082377,-73391.948708
1226.794555,296.082377,444.123565,-73085.510509
1226.797134,8882.471304,1628.453072,-72932.291410
1226.799712,2664.741391,13619.789333,-73085.510509
1226.802290,2072.576638,888.247130,-73698.386908
1226.804868,4885.359217,2960.823768,-72625.853210
1226.807446,1924.535449,4293.194464,-73238.729609
1226.810024,3849.070898,2516.700203,-74158.044206
1226.812601,2664.741391,-592.164754,-73085.510509
1226.815179,3108.864956,6217.729913,-72319.415011
1226.817757,3701.029710,2812.782580,-71859.757712
1226.820334,1776.494261,13323.706956,-73238.729609
1226.822912,7254.018232,7550.100608,-72779.072310
1226.825490,5625.565159,13619.789333,-74464.482406
1226.828068,-592.164754,-9474.636058,-72319.415011
1226.830645,6513.812290,18209.066173,-72166.195912
1226.833223,-740.205942,296.082377,-72319.415011
1226.835801,1480.411884,4589.276840,-73698.386908
1226.838378,4145.153275,16136.489536,-75383.797003
1226.840956,888.247130,-7402.059420,-73698.386908
1226.843534,6217.729913,9178.553681,-73391.948708
1226.846112,296.082377,6365.771101,-72319.415011
1226.848689,1628.453072,-2812.782580,-72932.291410
1226.851267,3108.864956,3849.070898,-72625.853210
1226.853845,2072.576638,6069.688724,-73238.729609
1226.856423,3552.988522,4589.276840,-74464.482406
1226.859000,3997.112087,3108.864956,-73238.729609
1226.861578,4737.318029,-8290.306550,-73851.606007
1226.864156,2812.782580,3256.906145,-73698.386908
1226.866733,-1628.453072,-13175.665768,-72932.291410
1226.869311,2220.617826,-13471.748144,-72012.976812
1226.871889,2664.741391,740.205942,-72012.976812
1226.874467,2664.741391,-11843.295072,-74004.825107
1226.877044,5033.400406,740.205942,-74004.825107
1226.879622,1480.411884,-2812.782580,-73238.729609
1226.882200,-148.041188,-4589.276840,-73391.948708
1226.884777,2960.823768,3108.864956,-73238.729609
1226.887355,888.247130,2220.617826,-72932.291410
1226.889933,3108.864956,-19541.436869,-73238.729609
1226.892511,2960.823768,-740.205942,-73851.606007
1226.895088,1776.494261,1480.411884,-75077.358804
1226.897666,3552.988522,-9770.718434,-73698.386908
1226.900244,6661.853478,-4885.359217,-71093.662214
1226.902822,3997.112087,1036.288319,-72932.291410
1226.905399,-1036.288319,-16136.489536,-73545.167808
1226.907975,3552.988522,592.164754,-73545.167808
1226.910551,296.082377,-9474.636058,-74158.044206
1226.913127,4293.194464,-11991.336260,-73698.386908
1226.915703,2664.741391,-1480.411884,-72166.195912
1226.918279,-592.164754,-10658.965565,-72166.195912
1226.920855,2220.617826,1332.370696,-72779.072310
1226.923431,3552.988522,2664.741391,-73391.948708
1226.926007,5181.441594,9474.636058,-73238.729609
1226.928583,1184.329507,5329.482782,-73851.606007
1226.931158,2516.700203,888.247130,-72319.415011
1226.933734,4441.235652,3108.864956,-72625.853210
1226.936310,4589.276840,4885.359217,-73391.948708
1226.938886,1480.411884,-3108.864956,-74311.263306
1226.941462,3849.070898,5921.647536,-72472.634111
1226.944038,1628.453072,148.041188,-73238.729609
1226.946614,2072.576638,5033.400406,-72779.072310
1226.949190,3108.864956,-4145.153275,-73085.510509
1226.951766,2516.700203,1924.535449,-73851.606007
1226.954342,4589.276840,4885.359217,-72932.291410
1226.956918,1480.411884,1924.535449,-73391.948708
1226.959494,1036.288319,-148.041188,-72166.195912
1226.962069,2960.823768,13915.871710,-73851.606007
1226.964645,3701.029710,4441.235652,-73698.386908
1226.967221,888.247130,7254.018232,-73545.167808
1226.969797,5329.482782,5181.441594,-72932.291410
1226.972373,-296.082377,1776.494261,-72625.853210
1226.974949,3552.988522,10955.047942,-72625.853210
1226.977525,592.164754,-5625.565159,-73085.510509
1226.980101,3256.906145,10066.800811,-73238.729609
1226.982677,2664.741391,2516.700203,-73391.948708
1226.985253,4441.235652,1776.494261,-74004.825107
1226.987829,5033.400406,-5033.400406,-73698.386908
1226.990405,1628.453072,-7402.059420,-73391.948708
1226.992981,-888.247130,-10362.883188,-71859.757712
1226.995556,2072.576638,-12879.583391,-71859.757712
1226.998132,888.247130,2072.576638,-73238.729609
1227.000708,2072.576638,-9622.677246,-73698.386908
1227.003284,4293.194464,740.205942,-74004.825107
1227.005860,888.247130,-2368.659014,-72779.072310
1227.008436,3404.947333,-7994.224174,-72166.195912
1227.011011,1628.453072,-7846.182985,-71859.757712
1227.013585,1036.288319,-14656.077652,-72779.072310
1227.016160,6365.771101,7254.018232,-72932.291410
1227.018734,-2072.576638,-20725.766376,-74004.825107
1227.021309,5477.523971,-8290.306550,-73698.386908
1227.023883,8290.306550,5625.565159,-70634.004916
1227.026458,-4293.194464,-15988.448347,-74158.044206
1227.029033,3701.029710,-9326.594869,-73545.167808
1227.031607,1628.453072,5329.482782,-72625.853210
1227.034182,3256.906145,-19985.560434,-74311.263306
1227.036756,5181.441594,1628.453072,-72319.415011
1227.039331,296.082377,-11251.130318,-73698.386908
1227.041905,1184.329507,-6365.771101,-72779.072310
1227.044480,1776.494261,8734.430116,-72319.415011
1227.047054,5773.606348,-3108.864956,-73698.386908
1227.049629,4293.194464,12583.501014,-74004.825107
1227.052204,3997.112087,7254.018232,-72779.072310
1227.054778,1480.411884,-148.041188,-72779.072310
1227.057353,4293.194464,7550.100608,-72779.072310
1227.059927,3108.864956,2812.782580,-73391.948708
1227.062502,4145.153275,4737.318029,-73391.948708
1227.065076,3997.112087,1924.535449,-72012.976812
1227.067651,1480.411884,2960.823768,-72779.072310
1227.070226,3108.864956,15988.448347,-73238.729609
1227.072800,4737.318029,2664.741391,-73238.729609
1227.075375,-1036.288319,-8586.388927,-73698.386908
1227.077949,2664.741391,7402.059420,-75230.577904
1227.080524,-1776.494261,-19245.354492,-73085.510509
1227.083098,5921.647536,10510.924376,-72319.415011
1227.085673,3256.906145,14211.954086,-74004.825107
1227.088247,148.041188,-3849.070898,-74617.701505
1227.090822,5181.441594,8586.388927,-73085.510509
1227.093397,2664.741391,4589.276840,-73085.510509
1227.095971,2516.700203,3256.906145,-73238.729609
1227.098546,2516.700203,5181.441594,-72166.195912
1227.101120,2960.823768,592.164754,-72166.195912
1227.103695,3552.988522,11399.171507,-73851.606007
1227.106269,2072.576638,3108.864956,-73851.606007
1227.108844,5773.606348,-2220.617826,-73851.606007
1227.111418,3552.988522,-2516.700203,-73545.167808
1227.113951,1184.329507,-10955.047942,-73545.167808
1227.116485,592.164754,-9622.677246,-72319.415011
1227.119018,1184.329507,-11251.130318,-72779.072310
1227.121551,3552.988522,-3552.988522,-73238.729609
1227.124085,3256.906145,740.205942,-74311.263306
1227.126618,2960.823768,-5625.565159,-73545.167808
1227.129151,1776.494261,-7698.141797,-73085.510509
1227.131685,3997.112087,-3997.112087,-71859.757712
1227.134218,1036.288319,-10955.047942,-73851.606007
1227.136751,4737.318029,7105.977043,-72472.634111
1227.139285,2516.700203,-8734.430116,-71706.538613
1227.141818,3997.112087,-12583.501014,-74004.825107
1227.144351,6809.894666,-148.041188,-72472.634111
1227.146885,-740.205942,-7994.224174,-73698.386908
1227.149418,-296.082377,-11695.253884,-74004.825107
1227.151951,3552.988522,2368.659014,-71400.100414
1227.154485,296.082377,-13619.789333,-74004.825107
1227.157018,6513.812290,-3108.864956,-73545.167808
1227.159551,1184.329507,-4441.235652,-73391.948708
1227.162085,1332.370696,-12139.377449,-73238.729609
1227.164618,3997.112087,-1332.370696,-72319.415011
1227.167151,2220.617826,-1480.411884,-72166.195912
1227.169685,6809.894666,7105.977043,-73545.167808
1227.172218,5477.523971,10658.965565,-73698.386908
1227.174751,2072.576638,4737.318029,-72779.072310
1227.177285,1036.288319,3108.864956,-72932.291410
1227.179818,1776.494261,2516.700203,-72932.291410
1227.182351,5329.482782,7994.224174,-73698.386908
1227.184885,3701.029710,-7698.141797,-73238.729609
1227.187418,1332.370696,7846.182985,-72472.634111
1227.189951,4589.276840,1036.288319,-72012.976812
1227.192485,1924.535449,15840.407159,-73085.510509
1227.195018,2960.823768,-148.041188,-73238.729609
1227.197551,148.041188,-1332.370696,-74311.263306
1227.200085,4145.153275,20577.725188,-73698.386908
1227.202618,-1924.535449,-6069.688724,-72472.634111
1227.205151,-2516.700203,4885.359217,-75383.797003
1227.207684,5329.482782,16580.613101,-73851.606007
1227.210218,148.041188,-5921.647536,-73085.510509
1227.212751,7550.100608,17172.777854,-72932.291410
1227.215292,444.123565,-2960.823768,-74158.044206
1227.217832,1628.453072,9326.594869,-72932.291410
1227.220373,2220.617826,-1776.494261,-72932.291410
1227.222914,1036.288319,5773.606348,-73238.729609
1227.225455,3256.906145,5033.400406,-74004.825107
1227.227995,5033.400406,444.123565,-73545.167808
1227.230536,3552.988522,-8586.388927,-74464.482406
1227.233077,1332.370696,740.205942,-74158.044206
1227.235617,-3404.947333,-20429.683999,-72932.291410
1227.238158,2368.659014,-6513.812290,-71553.319513
1227.240699,740.205942,-148.041188,-73851.606007
1227.243239,592.164754,-7550.100608,-74924.139704
1227.245780,4885.359217,-592.164754,-73851.606007
1227.248321,888.247130,-2960.823768,-73851.606007
1227.250861,1184.329507,-9474.636058,-72472.634111
1227.253402,4589.276840,-14952.160028,-71706.538613
1227.255943,3256.906145,-8142.265362,-72319.415011
1227.258483,4441.235652,-2368.659014,-73851.606007
1227.261024,3849.070898,-444.123565,-74311.263306
1227.263565,3849.070898,-3701.029710,-73238.729609
1227.266105,1776.494261,-8734.430116,-73085.510509
1227.268646,1776.494261,-7994.224174,-73391.948708
1227.271187,1184.329507,-148.041188,-73238.729609
1227.273727,3108.864956,-9030.512492,-73238.729609
1227.276268,3997.112087,-4441.235652,-74004.825107
1227.278809,4145.153275,-5477.523971,-74004.825107
1227.281349,592.164754,-12731.542202,-72779.072310
1227.283890,2960.823768,444.123565,-72779.072310
1227.286431,2960.823768,-4145.153275,-73085.510509
1227.288971,4293.194464,13175.665768,-74004.825107
1227.291512,4885.359217,9326.594869,-74464.482406
1227.294053,1036.288319,2812.782580,-73238.729609
1227.296593,3256.906145,5625.565159,-71859.757712
1227.299134,3108.864956,3256.906145,-73085.510509
1227.301675,2516.700203,1480.411884,-73698.386908
1227.304215,4145.153275,-2812.782580,-73698.386908
1227.306756,2220.617826,6809.894666,-71706.538613
1227.309297,6661.853478,3404.947333,-71553.319513
1227.311837,740.205942,-740.205942,-75077.358804
1227.314378,4737.318029,4293.194464,-73085.510509
1227.316925,4145.153275,148.041188,-73238.729609
1227.319473,888.247130,7105.977043,-72625.853210
1227.322020,1776.494261,-2812.782580,-72625.853210
1227.324567,4441.235652,3997.112087,-73545.167808
1227.327114,3404.947333,13915.871710,-72932.291410
1227.329662,4293.194464,1924.535449,-74311.263306
1227.332209,2664.741391,1036.288319,-73085.510509
1227.334756,4293.194464,6217.729913,-72932.291410
1227.337303,592.164754,-1036.288319,-72932.291410
1227.339850,1628.453072,9030.512492,-73085.510509
1227.342398,2220.617826,6513.812290,-74158.044206
1227.344945,5773.606348,296.082377,-73698.386908
1227.347492,3701.029710,-8734.430116,-73851.606007
1227.350039,5773.606348,2220.617826,-73698.386908
1227.352587,-888.247130,-14952.160028,-73545.167808
1227.355134,3108.864956,-15692.365970,-71706.538613
1227.357681,1184.329507,-5921.647536,-72012.976812
1227.360228,4589.276840,-7994.224174,-73391.948708
1227.362776,6069.688724,1036.288319,-74158.044206
1227.365323,1480.411884,0.000000,-73698.386908
1227.367870,1480.411884,-15100.201217,-73238.729609
1227.370417,3552.988522,592.164754,-71400.100414
1227.372964,592.164754,-15692.365970,-72472.634111
1227.375512,5921.647536,6069.688724,-73545.167808
1227.378059,-2220.617826,-16432.571912,-75077.358804
1227.380606,2960.823768,-18801.230927,-73238.729609
1227.383153,1924.535449,3701.029710,-74158.044206
1227.385701,-4145.153275,-13767.830521,-74770.920605
1227.388248,3404.947333,-3701.029710,-72472.634111
1227.390795,1480.411884,-592.164754,-72472.634111
1227.393342,2516.700203,-13619.789333,-74004.825107
1227.395890,5625.565159,1776.494261,-73238.729609
1227.398437,-2368.659014,-13027.624579,-74464.482406
1227.400984,3552.988522,-6217.729913,-72932.291410
1227.403531,2960.823768,4441.235652,-71859.757712
1227.406078,3701.029710,3997.112087,-73238.729609
1227.408626,5181.441594,12435.459826,-73698.386908
1227.411173,888.247130,6957.935855,-73085.510509
1227.413720,2812.782580,592.164754,-73085.510509
1227.416267,2960.823768,2072.576638,-72779.072310
1227.418820,5181.441594,9326.594869,-73698.386908
1227.421373,4885.359217,-7550.100608,-73238.729609
1227.423926,1480.411884,7550.100608,-72472.634111
1227.426478,1036.288319,10658.965565,-73851.606007
1227.429031,8290.306550,19393.395680,-73238.729609
1227.431584,2812.782580,-1776.494261,-73698.386908
1227.434137,-1628.453072,-592.164754,-75230.577904
1227.436689,1332.370696,-6661.853478,-73851.606007
1227.439242,3256.906145,5477.523971,-71859.757712
1227.441795,-2368.659014,1332.370696,-74617.701505
1227.444347,2812.782580,7550.100608,-74924.139704
1227.446900,4589.276840,8734.430116,-73851.606007
1227.449453,3997.112087,888.247130,-73085.510509
1227.452006,2960.823768,8882.471304,-72319.415011
1227.454558,-740.205942,-3404.947333,-72625.853210
1227.457111,4441.235652,9326.594869,-72012.976812
1227.459664,2664.741391,9178.553681,-73085.510509
1227.462217,3256.906145,-1628.453072,-74311.263306
1227.464769,6513.812290,-7846.182985,-73391.948708
1227.467322,5181.441594,1332.370696,-73085.510509
1227.469875,-2220.617826,-20429.683999,-73545.167808
1227.472427,2220.617826,-10807.006753,-71553.319513
1227.474980,3256.906145,-6365.771101,-71400.100414
1227.477533,2664.741391,-7698.141797,-73085.510509
1227.480086,4737.318029,-296.082377,-74004.825107
1227.482638,2516.700203,3701.029710,-73698.386908
1227.485191,2664.741391,-19541.436869,-72319.415011
1227.487744,2220.617826,-13027.624579,-72932.291410
1227.490297,2812.782580,19097.313304,-72472.634111
1227.492849,1628.453072,-6661.853478,-73238.729609
1227.495402,1628.453072,-26351.331535,-74311.263306
1227.497955,5477.523971,20873.807564,-73085.510509
1227.500508,1184.329507,-3849.070898,-73851.606007
1227.503060,1184.329507,-24278.754898,-74004.825107
1227.505613,592.164754,6365.771101,-72319.415011
1227.508166,2664.741391,-16284.530724,-72932.291410
1227.510718,4885.359217,-5033.400406,-73085.510509
1227.513271,1924.535449,1776.494261,-74464.482406
1227.515824,1924.535449,-18653.189738,-73085.510509
1227.518377,3701.029710,4293.194464,-72319.415011
1227.520895,2664.741391,592.164754,-72319.415011
1227.523414,4293.194464,11695.253884,-74158.044206
1227.525933,3404.947333,9918.759623,-73085.510509
1227.528452,2368.659014,296.082377,-72932.291410
1227.530970,3701.029710,4145.153275,-73085.510509
1227.533489,5181.441594,7698.141797,-73698.386908
1227.536008,4885.359217,1628.453072,-73545.167808
1227.538527,2812.782580,444.123565,-73085.510509
1227.541045,2664.741391,9030.512492,-71859.757712
1227.543564,7254.018232,13027.624579,-71093.662214
1227.546083,4737.318029,11991.336260,-75383.797003
1227.548602,148.041188,-10510.924376,-74464.482406
1227.551120,4293.194464,18801.230927,-71859.757712
1227.553639,2368.659014,-6661.853478,-71706.538613
1227.556158,4589.276840,8734.430116,-72319.415011
1227.558676,4145.153275,7846.182985,-73545.167808
1227.561195,4293.194464,-2664.741391,-73851.606007
1227.563714,4885.359217,7698.141797,-73545.167808
1227.566233,2516.700203,1332.370696,-73085.510509
1227.568751,1184.329507,1036.288319,-72625.853210
1227.571270,1776.494261,10807.006753,-71706.538613
1227.573789,1924.535449,2812.782580,-73085.510509
1227.576308,4145.153275,8142.265362,-73545.167808
1227.578826,5477.523971,-7402.059420,-73851.606007
1227.581345,3849.070898,-2072.576638,-74311.263306
1227.583864,740.205942,-10807.006753,-73851.606007
1227.586383,1332.370696,-18357.107362,-71400.100414
1227.588901,2072.576638,-6957.935855,-71553.319513
1227.591420,3404.947333,-5477.523971,-72625.853210
1227.593939,2960.823768,-1036.288319,-73698.386908
1227.596458,4293.194464,-3108.864956,-73545.167808
1227.598976,-740.205942,-9622.677246,-74617.701505
1227.601495,3552.988522,12583.501014,-70634.004916
1227.604014,740.205942,-18061.024985,-72472.634111
1227.606533,2368.659014,-296.082377,-75077.358804
1227.609051,1924.535449,19393.395680,-74004.825107
1227.611570,0.000000,-25907.207970,-74464.482406
1227.614089,7846.182985,5477.523971,-72779.072310
1227.616608,740.205942,-3997.112087,-73238.729609
1227.619126,-2072.576638,-31532.773129,-73238.729609
1227.621656,3108.864956,7846.182985,-72625.853210
1227.624187,-1628.453072,-14211.954086,-73851.606007
1227.626717,2812.782580,-5033.400406,-75690.235202
1227.629247,1036.288319,296.082377,-73391.948708
1227.631777,1924.535449,-9770.718434,-73851.606007
1227.634307,5329.482782,4441.235652,-72012.976812
1227.636838,740.205942,10807.006753,-73238.729609
1227.639368,888.247130,5625.565159,-72779.072310
1227.641898,4737.318029,3849.070898,-72779.072310
1227.644428,2072.576638,1332.370696,-72932.291410
1227.646958,8438.347739,7846.182985,-74158.044206
1227.649489,2072.576638,3701.029710,-74311.263306
1227.652019,2368.659014,-1036.288319,-73238.729609
1227.654549,2220.617826,740.205942,-71859.757712
1227.657079,3997.112087,12139.377449,-71859.757712
1227.659609,-1776.494261,-22650.301825,-75537.016103
1227.662140,7402.059420,38638.750172,-73698.386908
1227.664670,-3701.029710,-26795.455100,-72319.415011
1227.667200,0.000000,4441.235652,-73391.948708
1227.669730,7402.059420,21465.972318,-73391.948708
1227.672260,1480.411884,-14656.077652,-72625.853210
1227.674790,11251.130318,19689.478057,-73391.948708
1227.677321,6957.935855,5773.606348,-73238.729609
1227.679851,-148.041188,-740.205942,-73238.729609
1227.682381,4737.318029,9326.594869,-71553.319513
1227.684911,-2072.576638,3404.947333,-72625.853210
1227.687441,2664.741391,4737.318029,-72319.415011
1227.689972,4885.359217,3849.070898,-73391.948708
1227.692502,4885.359217,-13175.665768,-73851.606007
1227.695032,5033.400406,3108.864956,-74158.044206
1227.697562,-3256.906145,-18801.230927,-72472.634111
1227.700092,592.164754,-11399.171507,-71859.757712
1227.702623,1924.535449,1628.453072,-72625.853210
1227.705153,1776.494261,-7254.018232,-73391.948708
1227.707683,6217.729913,1628.453072,-74311.263306
1227.710213,148.041188,-9474.636058,-74311.263306
1227.712743,-1184.329507,-10955.047942,-74464.482406
1227.715274,4145.153275,-9178.553681,-71246.881314
1227.717804,1036.288319,-3404.947333,-72932.291410
1227.720334,4737.318029,-5773.606348,-73238.729609
1227.722874,3849.070898,1184.329507,-74464.482406
1227.725414,5625.565159,-7254.018232,-72779.072310
1227.727954,2220.617826,-10066.800811,-72625.853210
1227.730494,740.205942,-6513.812290,-72166.195912
1227.733034,2072.576638,-3256.906145,-72319.415011
1227.735574,1924.535449,-9326.594869,-73391.948708
1227.738114,4589.276840,-1628.453072,-73391.948708
1227.740654,2220.617826,-7254.018232,-74464.482406
1227.743194,3108.864956,-6513.812290,-73851.606007
1227.745734,4293.194464,-1184.329507,-73085.510509
1227.748274,2516.700203,5773.606348,-71859.757712
1227.750814,2812.782580,10362.883188,-72472.634111
1227.753354,-592.164754,7402.059420,-72932.291410
1227.755894,2220.617826,5773.606348,-73851.606007
1227.758434,5329.482782,4441.235652,-73851.606007
1227.760974,3256.906145,8734.430116,-75230.577904
1227.763514,3997.112087,-6217.729913,-72932.291410
1227.766054,-148.041188,1924.535449,-71859.757712
1227.768594,4737.318029,19097.313304,-71400.100414
1227.771134,4441.235652,10066.800811,-73238.729609
1227.773674,740.205942,-7105.977043,-75537.016103
1227.776214,7994.224174,23982.672521,-73238.729609
1227.778754,1924.535449,-1036.288319,-72472.634111
1227.781294,-1480.411884,-5921.647536,-73545.167808
1227.783834,5773.606348,14804.118840,-72319.415011
1227.786374,1480.411884,1628.453072,-73698.386908
1227.788914,6513.812290,12287.418637,-75383.797003
1227.791454,1332.370696,296.082377,-73391.948708
1227.793994,3256.906145,888.247130,-72166.195912
1227.796534,5181.441594,14211.954086,-72012.976812
1227.799074,1036.288319,0.000000,-71400.100414
1227.801615,5329.482782,2072.576638,-73851.606007
1227.804155,5625.565159,-9178.553681,-75077.358804
1227.806695,2072.576638,-3849.070898,-73698.386908
1227.809235,1184.329507,-13027.624579,-73545.167808
1227.811775,-2072.576638,-15396.283594,-72472.634111
1227.814315,1480.411884,-2220.617826,-72472.634111
1227.816855,3108.864956,-2664.741391,-73851.606007
1227.819395,1776.494261,-1924.535449,-74464.482406
1227.821935,1184.329507,-1036.288319,-74617.701505
1227.824482,2072.576638,-14359.995275,-74924.139704
1227.827029,5329.482782,3404.947333,-72012.976812
1227.829576,2368.659014,-444.123565,-71400.100414
1227.832123,1036.288319,-10362.883188,-72472.634111
1227.834670,3701.029710,-8142.265362,-74770.920605
1227.837217,1184.329507,-2812.782580,-74770.920605
1227.839764,2516.700203,-8586.388927,-73391.948708
1227.842311,740.205942,-10214.842000,-71553.319513
1227.844858,1480.411884,-1480.411884,-71400.100414
1227.847405,740.205942,-17024.736666,-72319.415011
1227.849952,2368.659014,3404.947333,-74158.044206
1227.852499,740.205942,-13619.789333,-74617.701505
1227.855046,1480.411884,-6069.688724,-74924.139704
1227.857593,4885.359217,4885.359217,-73238.729609
1227.860140,740.205942,9030.512492,-73851.606007
1227.862687,2368.659014,11695.253884,-72166.195912
1227.865234,2812.782580,4885.359217,-71706.538613
1227.867781,1628.453072,3701.029710,-72779.072310
1227.870328,5773.606348,3849.070898,-74311.263306
1227.872876,2812.782580,2220.617826,-74464.482406
1227.875423,2516.700203,444.123565,-73238.729609
1227.877970,1628.453072,9918.759623,-71553.319513
1227.880517,4737.318029,14656.077652,-71400.100414
1227.883064,-4293.194464,-24278.754898,-73391.948708
1227.885611,15100.201217,36714.214723,-74158.044206
1227.888158,-2072.576638,-1332.370696,-75077.358804
1227.890705,-740.205942,-13767.830521,-72012.976812
1227.893252,11251.130318,23538.548956,-71246.881314
1227.895799,3256.906145,-3256.906145,-73545.167808
1227.898346,2220.617826,1480.411884,-73851.606007
1227.900893,7846.182985,10807.006753,-73851.606007
1227.903440,-592.164754,-6513.812290,-73851.606007
1227.905987,3997.112087,11695.253884,-73238.729609
1227.908534,444.123565,8290.306550,-72472.634111
1227.911081,888.247130,888.247130,-71859.757712
1227.913628,6513.812290,444.123565,-73238.729609
1227.916175,2664.741391,-6809.894666,-75230.577904
1227.918722,1776.494261,-13175.665768,-73545.167808
1227.921269,296.082377,-14211.954086,-73391.948708
1227.923816,-740.205942,-8882.471304,-72625.853210
1227.926370,5773.606348,-1184.329507,-72472.634111
1227.928923,1480.411884,-4737.318029,-73545.167808
1227.931476,4293.194464,1776.494261,-74464.482406
1227.934030,3552.988522,-7698.141797,-73851.606007
1227.936583,-740.205942,-26351.331535,-72166.195912
1227.939136,5625.565159,10362.883188,-71553.319513
1227.941689,-1332.370696,-4293.194464,-72472.634111
1227.944243,4441.235652,2516.700203,-73085.510509
1227.946796,0.000000,-3108.864956,-75383.797003
1227.949349,0.000000,-9474.636058,-75996.673402
1227.951903,1628.453072,-5773.606348,-73085.510509
1227.954456,-1924.535449,-9178.553681,-72625.853210
1227.957009,4589.276840,-6809.894666,-71400.100414
1227.959562,2220.617826,-2812.782580,-73085.510509
1227.962116,1924.535449,-6809.894666,-73698.386908
1227.964669,5773.606348,-5773.606348,-74158.044206
1227.967222,4441.235652,0.000000,-74158.044206
1227.969776,3108.864956,2072.576638,-73085.510509
1227.972329,3552.988522,15100.201217,-72166.195912
1227.974882,592.164754,5921.647536,-71859.757712
1227.977436,3997.112087,3404.947333,-72012.976812
1227.979989,5329.482782,5033.400406,-73851.606007
1227.982542,4885.359217,6365.771101,-74924.139704
1227.985095,3256.906145,-4145.153275,-74617.701505
1227.987649,-592.164754,8734.430116,-72779.072310
1227.990202,6513.812290,11251.130318,-71400.100414
1227.992755,9030.512492,14359.995275,-73545.167808
1227.995309,2664.741391,-8586.388927,-73545.167808
1227.997862,3849.070898,3404.947333,-74617.701505
1228.000415,3997.112087,11103.089130,-73545.167808
1228.002968,0.000000,-8438.347739,-71246.881314
1228.005522,8586.388927,16580.613101,-72166.195912
1228.008080,296.082377,-3552.988522,-73545.167808
1228.010638,5033.400406,4737.318029,-74464.482406
1228.013196,7698.141797,12879.583391,-73391.948708
1228.015755,0.000000,-1036.288319,-72932.291410
1228.018313,2812.782580,11695.253884,-72932.291410
1228.020871,4293.194464,1480.411884,-72012.976812
1228.023429,3256.906145,-2960.823768,-74158.044206
1228.025988,5033.400406,-4145.153275,-74464.482406
1228.028546,888.247130,-11103.089130,-73391.948708
1228.031104,1332.370696,-15396.283594,-72319.415011
1228.033662,888.247130,-7550.100608,-72472.634111
1228.036221,2516.700203,-3701.029710,-73238.729609
1228.038779,3997.112087,2368.659014,-73545.167808
1228.041337,3256.906145,-6365.771101,-72625.853210
1228.043895,5773.606348,444.123565,-73085.510509
1228.046453,1480.411884,3849.070898,-74004.825107
1228.049012,-148.041188,-9622.677246,-73545.167808
1228.051570,1776.494261,-5773.606348,-71553.319513
1228.054128,3108.864956,-8586.388927,-73698.386908
1228.056686,296.082377,1036.288319,-75843.454302
1228.059245,1924.535449,-14804.118840,-75077.358804
1228.061803,2072.576638,-5773.606348,-73391.948708
1228.064361,1628.453072,-5477.523971,-72166.195912
1228.066919,592.164754,-11695.253884,-72472.634111
1228.069477,1332.370696,444.123565,-72319.415011
1228.072036,2812.782580,-6809.894666,-73698.386908
1228.074594,1332.370696,-6365.771101,-74617.701505
1228.077152,5625.565159,2220.617826,-74464.482406
1228.079710,4293.194464,11843.295072,-73238.729609
1228.082269,1184.329507,10066.800811,-72779.072310
1228.084827,2368.659014,3404.947333,-71706.538613
1228.087385,2072.576638,3108.864956,-71859.757712
1228.089943,5033.400406,6069.688724,-74158.044206
1228.092501,1776.494261,592.164754,-75077.358804
1228.095060,2664.741391,-4737.318029,-72779.072310
1228.097618,4293.194464,8290.306550,-71400.100414
1228.100176,3108.864956,20281.642811,-73391.948708
1228.102734,2812.782580,-1628.453072,-73851.606007
1228.105293,1332.370696,-7550.100608,-75077.358804
1228.107851,14952.160028,29460.196492,-72779.072310
1228.110413,-6217.729913,-2960.823768,-71093.662214
1228.112975,1628.453072,-2516.700203,-73085.510509
1228.115537,6069.688724,16876.695478,-73238.729609
1228.118100,2220.617826,-7698.141797,-73545.167808
1228.120662,7550.100608,14211.954086,-73851.606007
1228.123224,0.000000,-4145.153275,-73545.167808
1228.125786,2960.823768,4441.235652,-73698.386908
1228.128349,2664.741391,10955.047942,-72166.195912
1228.130911,3552.988522,-1924.535449,-72625.853210
1228.133473,4589.276840,-7402.059420,-73085.510509
1228.136035,2368.659014,-2960.823768,-73851.606007
1228.138598,-1332.370696,-22502.260637,-73238.729609
1228.141160,2960.823768,-4145.153275,-72625.853210
1228.143722,1480.411884,-10214.842000,-72779.072310
1228.146284,2220.617826,-444.123565,-73851.606007
1228.148847,5625.565159,-3108.864956,-73545.167808
1228.151409,1332.370696,-14359.995275,-73238.729609
1228.153971,1184.329507,-16728.654289,-74158.044206
1228.156534,2368.659014,7994.224174,-72625.853210
1228.159096,-592.164754,-10510.924376,-71553.319513
1228.161658,5181.441594,4293.194464,-73085.510509
1228.164220,-1776.494261,-2220.617826,-75077.358804
1228.166783,6365.771101,-6809.894666,-74004.825107
1228.169345,1480.411884,-12879.583391,-73545.167808
1228.171907,1332.370696,-11251.130318,-72472.634111
1228.174469,1776.494261,-7105.977043,-71859.757712
1228.177032,0.000000,-888.247130,-72779.072310
1228.179594,1332.370696,-8142.265362,-73085.510509
1228.182156,4293.194464,-148.041188,-73391.948708
1228.184718,3701.029710,-6069.688724,-75077.358804
1228.187281,4145.153275,9178.553681,-73545.167808
1228.189843,2812.782580,8586.388927,-72779.072310
1228.192405,2812.782580,3849.070898,-71246.881314
1228.194967,2516.700203,6809.894666,-71859.757712
1228.197530,5329.482782,3108.864956,-73851.606007
1228.200092,5477.523971,6661.853478,-74924.139704
1228.202654,3256.906145,-888.247130,-73391.948708
1228.205217,1332.370696,1036.288319,-72012.976812
1228.207779,1332.370696,1184.329507,-71400.100414
1228.210341,6661.853478,11103.089130,-72472.634111
1228.212871,3552.988522,13767.830521,-74924.139704
1228.215400,-148.041188,-7254.018232,-73545.167808
1228.217930,5921.647536,16580.613101,-73085.510509
1228.220460,2664.741391,-4145.153275,-72625.853210
1228.222989,740.205942,-592.164754,-72779.072310
1228.225519,6957.935855,21465.972318,-73545.167808
1228.228048,1332.370696,-7846.182985,-73238.729609
1228.230578,8586.388927,10066.800811,-74004.825107
1228.233108,888.247130,13767.830521,-73085.510509
1228.235637,740.205942,-3997.112087,-73238.729609
1228.238167,6661.853478,5033.400406,-72166.195912
1228.240696,592.164754,-7550.100608,-73391.948708
1228.243226,1480.411884,-6661.853478,-74464.482406
1228.245756,1036.288319,-13767.830521,-73545.167808
1228.248285,592.164754,-14804.118840,-73085.510509
1228.250815,4885.359217,296.082377,-72472.634111
1228.253345,148.041188,-3552.988522,-74464.482406
1228.255874,4885.359217,-2812.782580,-73238.729609
1228.258404,148.041188,-2220.617826,-73391.948708
1228.260933,2812.782580,4589.276840,-73085.510509
1228.263463,1036.288319,-8734.430116,-74158.044206
1228.265993,740.205942,-22798.343014,-73545.167808
1228.268522,4589.276840,10510.924376,-72012.976812
1228.271052,-296.082377,3849.070898,-73851.606007
1228.273582,2516.700203,-20577.725188,-74617.701505
1228.276111,3849.070898,4145.153275,-73698.386908
1228.278641,-2368.659014,-15544.324782,-73391.948708
1228.281170,2664.741391,-5773.606348,-72625.853210
1228.283700,740.205942,148.041188,-71400.100414
1228.286230,3256.906145,-10658.965565,-73238.729609
1228.288759,2664.741391,1036.288319,-74158.044206
1228.291289,4737.318029,4737.318029,-74464.482406
1228.293818,5921.647536,4885.359217,-72472.634111
1228.296348,2072.576638,14656.077652,-73085.510509
1228.298878,2368.659014,1184.329507,-72472.634111
1228.301407,1480.411884,3701.029710,-72166.195912
1228.303937,6365.771101,6661.853478,-72779.072310
1228.306467,3552.988522,3404.947333,-74311.263306
1228.308996,3552.988522,-2368.659014,-73545.167808
1228.311526,-740.205942,8586.388927,-72625.853210
1228.314065,-2664.741391,-11251.130318,-71859.757712
1228.316604,12731.542202,22354.219448,-73238.729609
1228.319143,-2812.782580,-25018.960840,-73085.510509
1228.321682,2220.617826,16580.613101,-75383.797003
1228.324221,7105.977043,5625.565159,-72932.291410
1228.326760,1776.494261,-5773.606348,-72166.195912
1228.329300,8438.347739,19393.395680,-72166.195912
1228.331839,444.123565,-2368.659014,-73545.167808
1228.334378,2960.823768,3997.112087,-73391.948708
1228.336917,5033.400406,8438.347739,-73238.729609
1228.339456,-2812.782580,4737.318029,-73545.167808
1228.341995,3552.988522,4293.194464,-73391.948708
1228.344534,4885.359217,-6069.688724,-72932.291410
1228.347073,1776.494261,-2812.782580,-73698.386908
1228.349612,296.082377,-16432.571912,-73545.167808
1228.352152,1776.494261,-13323.706956,-72625.853210
1228.354691,4293.194464,-10066.800811,-73238.729609
1228.357230,4441.235652,2516.700203,-73545.167808
1228.359769,2516.700203,-3849.070898,-74004.825107
1228.362308,2368.659014,2812.782580,-73698.386908
1228.364847,2368.659014,-6217.729913,-72779.072310
1228.367386,2220.617826,-2812.782580,-72779.072310
1228.369925,2516.700203,-8142.265362,-71859.757712
1228.372465,592.164754,-3997.112087,-73545.167808
1228.375004,4737.318029,1332.370696,-71553.319513
1228.377543,740.205942,-11991.336260,-74770.920605
1228.380082,888.247130,-12731.542202,-74158.044206
1228.382621,2220.617826,-3997.112087,-73085.510509
1228.385160,1776.494261,-14359.995275,-72779.072310
1228.387699,1924.535449,-1184.329507,-72166.195912
1228.390238,1036.288319,-6217.729913,-73238.729609
1228.392777,3108.864956,-3404.947333,-74004.825107
1228.395317,5181.441594,-148.041188,-73545.167808
1228.397856,3701.029710,6661.853478,-74004.825107
1228.400395,4441.235652,11399.171507,-72319.415011
1228.402934,888.247130,8586.388927,-72319.415011
1228.405473,2664.741391,5329.482782,-72012.976812
1228.408012,6069.688724,8586.388927,-73238.729609
1228.410551,4441.235652,3997.112087,-74617.701505
1228.413090,5181.441594,-3997.112087,-73391.948708
1228.415637,1332.370696,10955.047942,-72166.195912
1228.418185,3404.947333,18949.272115,-72625.853210
1228.420732,-1036.288319,-8290.306550,-74004.825107
1228.423279,6069.688724,13323.706956,-74617.701505
1228.425826,2664.741391,2368.659014,-74158.044206
1228.428374,1776.494261,-3108.864956,-73238.729609
1228.430921,3997.112087,12435.459826,-71859.757712
1228.433468,3108.864956,4737.318029,-72166.195912
1228.436015,2960.823768,3404.947333,-73851.606007
1228.438562,4737.318029,5033.400406,-73391.948708
1228.441110,3108.864956,4737.318029,-73851.606007
1228.443657,1924.535449,10658.965565,-73545.167808
1228.446204,1332.370696,-1480.411884,-72932.291410
1228.448751,5773.606348,-3256.906145,-72472.634111
1228.451298,2072.576638,-4145.153275,-73545.167808
1228.453846,-888.247130,-14211.954086,-73545.167808
1228.456393,2960.823768,-13619.789333,-73391.948708
1228.458940,1628.453072,-8882.471304,-72319.415011
1228.461487,3552.988522,1036.288319,-73085.510509
1228.464034,2664.741391,-2516.700203,-73698.386908
1228.466582,148.041188,-1628.453072,-74464.482406
1228.469129,5181.441594,5181.441594,-72166.195912
1228.471676,-592.164754,-12287.418637,-73851.606007
1228.474223,3849.070898,-9030.512492,-74004.825107
1228.476770,4441.235652,10807.006753,-73085.510509
1228.479318,-1924.535449,-21317.931130,-73851.606007
1228.481865,4885.359217,2960.823768,-73391.948708
1228.484412,888.247130,-6809.894666,-73391.948708
1228.486959,592.164754,-27831.743419,-74158.044206
1228.489506,3701.029710,6069.688724,-71553.319513
1228.492054,-1480.411884,-12879.583391,-72932.291410
1228.494601,2960.823768,-1036.288319,-73238.729609
1228.497148,1332.370696,-4441.235652,-73698.386908
1228.499695,6809.894666,4737.318029,-74924.139704
1228.502242,2220.617826,6661.853478,-73851.606007
1228.504790,1924.535449,9178.553681,-72932.291410
1228.507337,2516.700203,3552.988522,-72625.853210
1228.509884,2664.741391,2220.617826,-72625.853210
1228.512431,5773.606348,5773.606348,-73238.729609
1228.514978,5033.400406,6957.935855,-73698.386908
1228.517532,2516.700203,-10955.047942,-73085.510509
1228.520086,2664.741391,19837.519246,-71553.319513
1228.522640,-1628.453072,-5329.482782,-72166.195912
1228.525194,1776.494261,5773.606348,-74770.920605
1228.527748,592.164754,3997.112087,-73238.729609
1228.530302,6513.812290,5625.565159,-72166.195912
1228.532856,888.247130,5181.441594,-73085.510509
1228.535410,1036.288319,-2368.659014,-73545.167808
1228.537964,6069.688724,11843.295072,-72932.291410
1228.540518,2960.823768,2368.659014,-72472.634111
1228.543073,4885.359217,5921.647536,-73851.606007
1228.545627,888.247130,9770.718434,-72625.853210
1228.548181,592.164754,1332.370696,-74311.263306
1228.550735,6365.771101,1036.288319,-72625.853210
1228.553289,2220.617826,-6809.894666,-74617.701505
1228.555843,1332.370696,-7550.100608,-73851.606007
1228.558397,444.123565,-16284.530724,-72166.195912
1228.560951,2368.659014,-11251.130318,-73238.729609
1228.563505,3404.947333,-4145.153275,-73085.510509
1228.566059,148.041188,-6513.812290,-73698.386908
1228.568613,3108.864956,5329.482782,-73545.167808
1228.571167,4145.153275,-6661.853478,-72012.976812
1228.573721,-148.041188,9918.759623,-74464.482406
1228.576275,-740.205942,-33605.349767,-72779.072310
1228.578829,6069.688724,23242.466579,-74158.044206
1228.581383,-7254.018232,-11547.212695,-75383.797003
1228.583937,2516.700203,-16876.695478,-73698.386908
1228.586491,9326.594869,20725.766376,-71553.319513
1228.589045,-3552.988522,-24722.878463,-75077.358804
1228.591599,-740.205942,-6513.812290,-74770.920605
1228.594153,148.041188,2812.782580,-72319.415011
1228.596707,1776.494261,-16284.530724,-71553.319513
1228.599261,6809.894666,6661.853478,-72472.634111
1228.601815,3256.906145,-4885.359217,-75077.358804
1228.604369,4145.153275,7698.141797,-73545.167808
1228.606923,3552.988522,10214.842000,-72932.291410
1228.609477,148.041188,5477.523971,-72166.195912
1228.612031,2664.741391,8586.388927,-71859.757712
1228.614585,1776.494261,1924.535449,-73238.729609
1228.617139,4885.359217,5033.400406,-74311.263306
1228.619664,3256.906145,5033.400406,-74004.825107
1228.622188,3404.947333,-2812.782580,-72932.291410
1228.624713,5625.565159,12139.377449,-71706.538613
1228.627238,2072.576638,-5329.482782,-72319.415011
1228.629763,3404.947333,16136.489536,-74464.482406
1228.632287,3849.070898,888.247130,-73085.510509
1228.634812,1480.411884,-1036.288319,-74158.044206
1228.637337,2516.700203,6513.812290,-73238.729609
1228.639862,5033.400406,13323.706956,-72166.195912
1228.642386,2368.659014,2368.659014,-73238.729609
1228.644911,3552.988522,-4441.235652,-73085.510509
1228.647436,1332.370696,10066.800811,-74617.701505
1228.649961,3552.988522,3552.988522,-72779.072310
1228.652485,3404.947333,1036.288319,-72166.195912
1228.655010,3552.988522,-9918.759623,-73698.386908
1228.657535,1332.370696,-1628.453072,-73545.167808
1228.660060,444.123565,-20577.725188,-72779.072310
1228.662585,2664.741391,-10510.924376,-73085.510509
1228.665109,1924.535449,-7254.018232,-73238.729609
1228.667634,3108.864956,-3997.112087,-73545.167808
1228.670159,1480.411884,0.000000,-73698.386908
1228.672684,0.000000,-10362.883188,-73391.948708
1228.675208,2960.823768,-18505.148550,-71553.319513
1228.677733,3997.112087,7402.059420,-72472.634111
1228.680258,-1480.411884,-27535.661042,-73238.729609
1228.682783,2960.823768,2516.700203,-73545.167808
1228.685307,1480.411884,8586.388927,-73085.510509
1228.687832,296.082377,-22946.384202,-75383.797003
1228.690357,740.205942,-1036.288319,-73698.386908
1228.692882,-1332.370696,-9622.677246,-73698.386908
1228.695406,1332.370696,-12583.501014,-72625.853210
1228.697931,3552.988522,7550.100608,-71553.319513
1228.700456,1776.494261,-12879.583391,-73698.386908
1228.702981,6217.729913,6365.771101,-74311.263306
1228.705505,1332.370696,7402.059420,-74311.263306
1228.708030,3552.988522,7402.059420,-73085.510509
1228.710555,3108.864956,11991.336260,-71859.757712
1228.713080,888.247130,3552.988522,-72625.853210
1228.715604,4293.194464,1776.494261,-72779.072310
1228.718129,5033.400406,8882.471304,-74770.920605
1228.720665,3256.906145,-5033.400406,-73851.606007
1228.723201,5921.647536,7994.224174,-72319.415011
1228.725736,2812.782580,15840.407159,-73238.729609
1228.728272,-1628.453072,-9770.718434,-73085.510509
1228.730808,7846.182985,4293.194464,-74158.044206
1228.733343,3849.070898,9030.512492,-73851.606007
1228.735879,1776.494261,-2368.659014,-72932.291410
1228.738415,7550.100608,6513.812290,-71706.538613
1228.740951,1332.370696,5181.441594,-72932.291410
1228.743486,5033.400406,2368.659014,-73545.167808
1228.746022,6365.771101,7698.141797,-73391.948708
1228.748558,1184.329507,2664.741391,-72472.634111
1228.751094,3108.864956,10807.006753,-74004.825107
1228.753629,2516.700203,-8882.471304,-72932.291410
1228.756165,4441.235652,-296.082377,-72932.291410
1228.758701,-740.205942,-10510.924376,-73545.167808
1228.761236,-1332.370696,-18949.272115,-72472.634111
1228.763772,3552.988522,-6365.771101,-73851.606007
1228.766308,2812.782580,-2812.782580,-73391.948708
1228.768844,1924.535449,-5625.565159,-73238.729609
1228.771379,4441.235652,-4589.276840,-73085.510509
1228.773915,-2368.659014,-17320.819043,-73851.606007
1228.776451,3701.029710,-11695.253884,-72779.072310
1228.778987,3997.112087,1036.288319,-72932.291410
1228.781522,3701.029710,-13471.748144,-73391.948708
1228.784058,8882.471304,-3849.070898,-72012.976812
1228.786594,888.247130,-10955.047942,-73545.167808
1228.789129,6513.812290,-1332.370696,-73698.386908
1228.791665,3404.947333,-12731.542202,-73085.510509
1228.794201,740.205942,-3849.070898,-72779.072310
1228.796737,1184.329507,-4737.318029,-72166.195912
1228.799272,2072.576638,-6809.894666,-72932.291410
1228.801808,4885.359217,-888.247130,-73851.606007
1228.804344,7105.977043,8290.306550,-74004.825107
1228.806879,3108.864956,6809.894666,-74311.263306
1228.809415,3552.988522,10807.006753,-72932.291410
1228.811951,1776.494261,2220.617826,-72166.195912
1228.814487,5181.441594,4737.318029,-71859.757712
1228.817022,4885.359217,6513.812290,-74464.482406
1228.819558,4885.359217,1036.288319,-74617.701505
1228.822103,4441.235652,-5921.647536,-72472.634111
1228.824648,2664.741391,10214.842000,-73085.510509
1228.827193,3997.112087,13323.706956,-73238.729609
1228.829738,-740.205942,-25315.043216,-72932.291410
1228.832283,12139.377449,30644.525999,-73391.948708
1228.834828,4737.318029,-6069.688724,-71706.538613
1228.837372,2812.782580,4293.194464,-74158.044206
1228.839917,3849.070898,12731.542202,-73085.510509
1228.842462,592.164754,-3701.029710,-72932.291410
1228.845007,6809.894666,6809.894666,-74004.825107
1228.847552,1776.494261,6217.729913,-73545.167808
1228.850097,1332.370696,-740.205942,-73238.729609
1228.852642,6069.688724,9326.594869,-73085.510509
1228.855187,1332.370696,-15988.448347,-72932.291410
1228.857732,3108.864956,-3552.988522,-73238.729609
1228.860277,-3108.864956,-15840.407159,-73698.386908
1228.862822,2516.700203,-17616.901420,-73391.948708
1228.865367,5181.441594,-740.205942,-74004.825107
1228.867911,2072.576638,-5033.400406,-73851.606007
1228.870456,6513.812290,3108.864956,-72166.195912
1228.873001,1332.370696,-2664.741391,-72472.634111
1228.875546,-444.123565,-9178.553681,-73851.606007
1228.878091,3997.112087,-6217.729913,-72779.072310
1228.880636,1332.370696,-13915.871710,-72625.853210
1228.883181,6217.729913,-3701.029710,-72319.415011
1228.885726,1776.494261,-8438.347739,-73698.386908
1228.888271,1924.535449,-9178.553681,-74464.482406
1228.890816,4737.318029,-8882.471304,-72932.291410
1228.893361,1776.494261,-12139.377449,-72319.415011
1228.895906,888.247130,-1924.535449,-72319.415011
1228.898450,1480.411884,-3404.947333,-72166.195912
1228.900995,1924.535449,-4293.194464,-73391.948708
1228.903540,5477.523971,8586.388927,-74464.482406
1228.906085,4589.276840,6513.812290,-73851.606007
1228.908630,3552.988522,12435.459826,-72625.853210
1228.911175,2664.741391,3108.864956,-72319.415011
1228.913720,2220.617826,3849.070898,-72012.976812
1228.916265,5625.565159,5921.647536,-73698.386908
1228.918810,5033.400406,2072.576638,-74311.263306
1228.921355,1332.370696,4589.276840,-74158.044206
1228.923907,2812.782580,11991.336260,-71859.757712
1228.926460,2220.617826,-3849.070898,-71553.319513
1228.929013,3108.864956,11547.212695,-74311.263306
1228.931566,1184.329507,-2664.741391,-73085.510509
1228.934119,4145.153275,14804.118840,-74464.482406
1228.936671,2664.741391,-2960.823768,-73545.167808
1228.939224,3108.864956,6365.771101,-72932.291410
1228.941777,3849.070898,14211.954086,-73545.167808
1228.944330,592.164754,-1480.411884,-72779.072310
1228.946883,3552.988522,7846.182985,-73851.606007
1228.949435,2664.741391,5773.606348,-73698.386908
1228.951988,3701.029710,-2220.617826,-73238.729609
1228.954541,4737.318029,-3997.112087,-72625.853210
1228.957094,0.000000,-8586.388927,-72472.634111
1228.959646,-888.247130,-17764.942608,-72472.634111
1228.962199,4589.276840,-3701.029710,-72472.634111
1228.964752,2072.576638,-9326.594869,-74004.825107
1228.967305,4441.235652,-1184.329507,-74464.482406
1228.969858,3997.112087,-2072.576638,-72779.072310
1228.972410,-2220.617826,-5773.606348,-72932.291410
1228.974963,2812.782580,-11103.089130,-72012.976812
1228.977516,3404.947333,1628.453072,-72625.853210
1228.980069,-888.247130,-4145.153275,-72779.072310
1228.982622,-592.164754,-21614.013506,-73851.606007
1228.985174,3256.906145,-444.123565,-73851.606007
1228.987727,740.205942,-5033.400406,-74617.701505
1228.990280,3256.906145,-20429.683999,-73698.386908
1228.992833,592.164754,5329.482782,-72779.072310
1228.995386,-1036.288319,-15988.448347,-73085.510509
1228.997938,3849.070898,-444.123565,-72779.072310
1229.000491,5329.482782,1184.329507,-73391.948708
1229.003044,4293.194464,5921.647536,-74158.044206
1229.005597,5033.400406,7402.059420,-73085.510509
1229.008149,2960.823768,11399.171507,-71859.757712
1229.010702,3108.864956,1924.535449,-72319.415011
1229.013255,3256.906145,2960.823768,-72472.634111
1229.015808,4293.194464,6661.853478,-73698.386908
1229.018361,4145.153275,1480.411884,-74770.920605
1229.020913,1776.494261,7402.059420,-72779.072310
1229.023466,1628.453072,10066.800811,-71859.757712
1229.025992,1776.494261,-5033.400406,-73545.167808
1229.028517,1184.329507,-296.082377,-74617.701505
1229.031042,5773.606348,9030.512492,-73391.948708
1229.033568,3849.070898,2664.741391,-72779.072310
1229.036093,3849.070898,8882.471304,-72319.415011
1229.038619,2072.576638,-2368.659014,-73085.510509
1229.041144,3256.906145,888.247130,-72625.853210
1229.043669,5181.441594,19689.478057,-73085.510509
1229.046195,444.123565,-1924.535449,-73698.386908
1229.048720,5329.482782,9770.718434,-73391.948708
1229.051246,2664.741391,-10362.883188,-73545.167808
1229.053771,2664.741391,-1184.329507,-72472.634111
1229.056297,740.205942,-11399.171507,-72319.415011
1229.058822,-444.123565,-18209.066173,-72472.634111
1229.061347,1776.494261,-9030.512492,-73851.606007
1229.063873,3404.947333,1924.535449,-74770.920605
1229.066398,1924.535449,-14359.995275,-73545.167808
1229.068924,3997.112087,7254.018232,-73545.167808
1229.071449,-592.164754,7402.059420,-73085.510509
1229.073974,888.247130,-28127.825796,-72319.415011
1229.076500,4441.235652,21614.013506,-72472.634111
1229.079025,-3701.029710,-9178.553681,-73698.386908
1229.081551,3849.070898,-17468.860231,-73545.167808
1229.084076,7402.059420,12731.542202,-71859.757712
1229.086601,4145.153275,-35381.844028,-74311.263306
1229.089127,4441.235652,9918.759623,-72625.853210
1229.091652,-2368.659014,-19393.395680,-72319.415011
1229.094178,444.123565,-1776.494261,-72625.853210
1229.096703,1924.535449,1628.453072,-72472.634111
1229.099228,2516.700203,4145.153275,-74924.139704
1229.101754,4885.359217,10510.924376,-73391.948708
1229.104279,1184.329507,11843.295072,-73238.729609
1229.106805,1924.535449,444.123565,-72012.976812
1229.109330,3108.864956,8586.388927,-72319.415011
1229.111856,5033.400406,4441.235652,-73851.606007
1229.114381,4885.359217,3404.947333,-74617.701505
1229.116906,-888.247130,1332.370696,-74464.482406
1229.119432,2664.741391,13323.706956,-72779.072310
1229.121957,3997.112087,24870.919651,-72166.195912
1229.124483,-1184.329507,-26351.331535,-73238.729609
1229.127019,4589.276840,25759.166782,-75537.016103
1229.129556,-296.082377,1332.370696,-73851.606007
1229.132094,6069.688724,-2220.617826,-72472.634111
1229.134631,5329.482782,13915.871710,-72319.415011
1229.137168,1776.494261,-5625.565159,-73238.729609
1229.139706,5625.565159,7994.224174,-74158.044206
1229.142243,3108.864956,12435.459826,-73085.510509
1229.144780,1776.494261,1776.494261,-73698.386908
1229.147318,5477.523971,-2812.782580,-73085.510509
1229.149855,1480.411884,-2664.741391,-73391.948708
1229.152393,148.041188,-10510.924376,-73085.510509
1229.154930,-1332.370696,-17320.819043,-72779.072310
1229.157467,2516.700203,-14508.036463,-72472.634111
1229.160005,5773.606348,148.041188,-73545.167808
1229.162542,3256.906145,-5477.523971,-73851.606007
1229.165079,5773.606348,1924.535449,-73698.386908
1229.167617,-296.082377,-24722.878463,-72625.853210
1229.170154,3256.906145,2516.700203,-71859.757712
1229.172691,2220.617826,-3552.988522,-72319.415011
1229.175229,2220.617826,-9178.553681,-73238.729609
1229.177766,3108.864956,-5921.647536,-73545.167808
1229.180303,5181.441594,-7402.059420,-74004.825107
1229.182841,2664.741391,-13619.789333,-74004.825107
1229.185378,2812.782580,-4293.194464,-74004.825107
1229.187915,148.041188,-8882.471304,-72625.853210
1229.190453,3108.864956,-6809.894666,-71706.538613
1229.192990,444.123565,592.164754,-72932.291410
1229.195527,8586.388927,1924.535449,-73545.167808
1229.198065,4145.153275,10362.883188,-73698.386908
1229.200602,1184.329507,11843.295072,-73851.606007
1229.203140,3701.029710,740.205942,-72012.976812
1229.205677,2516.700203,7698.141797,-71859.757712
1229.208191,5477.523971,4589.276840,-73085.510509
1229.210704,4145.153275,444.123565,-75537.016103
1229.213218,-148.041188,7254.018232,-73545.167808
1229.215732,1924.535449,2664.741391,-71553.319513
1229.218246,888.247130,-9770.718434,-72472.634111
1229.220760,8142.265362,22946.384202,-73085.510509
1229.223273,592.164754,3701.029710,-74004.825107
1229.225787,1776.494261,2220.617826,-73851.606007
1229.228301,4441.235652,15544.324782,-71706.538613
1229.230815,1628.453072,-5033.400406,-72625.853210
1229.233328,4441.235652,10807.006753,-72472.634111
1229.235842,4737.318029,20429.683999,-73085.510509
1229.238356,888.247130,-5181.441594,-73545.167808
1229.240870,7105.977043,15396.283594,-73391.948708
1229.243384,2072.576638,-14656.077652,-73238.729609
1229.245897,2664.741391,1184.329507,-73238.729609
1229.248411,-1036.288319,-17172.777854,-72625.853210
1229.250925,-592.164754,-14211.954086,-72319.415011
1229.253439,2812.782580,-7550.100608,-73851.606007
1229.255952,2072.576638,444.123565,-74770.920605
1229.258466,2812.782580,-5773.606348,-74158.044206
1229.260980,3256.906145,-5625.565159,-74617.701505
1229.263494,1776.494261,-18949.272115,-72472.634111
1229.266007,4145.153275,5477.523971,-71859.757712
1229.268521,740.205942,-8882.471304,-72166.195912
1229.271035,1924.535449,-14508.036463,-72932.291410
1229.273549,2072.576638,3552.988522,-73851.606007
1229.276063,3552.988522,-16432.571912,-73545.167808
1229.278576,2072.576638,-10658.965565,-74464.482406
1229.281090,2664.741391,444.123565,-73085.510509
1229.283604,-1184.329507,-18061.024985,-72319.415011
1229.286118,3552.988522,4293.194464,-72012.976812
1229.288631,2960.823768,-6365.771101,-73238.729609
1229.291145,5477.523971,12287.418637,-74617.701505
1229.293659,4145.153275,7402.059420,-74311.263306
1229.296173,1332.370696,10362.883188,-72319.415011
1229.298687,2368.659014,6365.771101,-71553.319513
1229.301200,3849.070898,0.000000,-73085.510509
1229.303714,5773.606348,9770.718434,-73851.606007
1229.306228,4885.359217,592.164754,-74770.920605
1229.308756,4293.194464,7254.018232,-71246.881314
1229.311285,2812.782580,13619.789333,-72166.195912
1229.313813,740.205942,3849.070898,-73391.948708
1229.316342,4145.153275,5181.441594,-73238.729609
1229.318870,2516.700203,15544.324782,-74770.920605
1229.321399,2960.823768,740.205942,-73698.386908
1229.323927,4589.276840,2072.576638,-72932.291410
1229.326455,4441.235652,12583.501014,-71859.757712
1229.328984,1332.370696,-4885.359217,-73238.729609
1229.331512,4885.359217,13027.624579,-74158.044206
1229.334041,5033.400406,10066.800811,-73238.729609
1229.336569,2220.617826,-8142.265362,-73545.167808
1229.339098,6513.812290,-1184.329507,-74004.825107
1229.341626,-740.205942,-12435.459826,-73238.729609
1229.344154,-2220.617826,-20133.601622,-71553.319513
1229.346683,2220.617826,-8142.265362,-72319.415011
1229.349211,2220.617826,-9030.512492,-73545.167808
1229.351740,6069.688724,2960.823768,-73851.606007
1229.354268,444.123565,5625.565159,-73698.386908
1229.356797,-740.205942,-4293.194464,-73238.729609
1229.359325,3997.112087,-13767.830521,-72625.853210
1229.361853,2072.576638,12435.459826,-71859.757712
1229.364382,-3701.029710,-31384.731941,-73391.948708
1229.366910,296.082377,3997.112087,-75383.797003
1229.369439,1036.288319,-2072.576638,-73391.948708
1229.371967,4441.235652,-19541.436869,-74004.825107
1229.374496,3997.112087,8882.471304,-72472.634111
1229.377024,-2072.576638,-18801.230927,-73698.386908
1229.379552,2368.659014,-1480.411884,-72012.976812
1229.382081,444.123565,-1480.411884,-72472.634111
1229.384609,6513.812290,6069.688724,-73698.386908
1229.387138,5773.606348,11399.171507,-72932.291410
1229.389666,1776.494261,11103.089130,-73238.729609
1229.392195,4293.194464,296.082377,-72625.853210
1229.394723,3701.029710,5625.565159,-72625.853210
1229.397251,5773.606348,7994.224174,-74464.482406
1229.399780,4589.276840,-3256.906145,-75383.797003
1229.402308,-592.164754,-1036.288319,-73851.606007
1229.404837,4589.276840,-3404.947333,-71246.881314
1229.407365,10955.047942,33013.185013,-72166.195912
1229.409906,-5033.400406,-9326.594869,-74464.482406
1229.412447,-2220.617826,-8734.430116,-75383.797003
1229.414987,7402.059420,23982.672521,-72932.291410
1229.417528,2072.576638,-8142.265362,-72012.976812
1229.420069,5921.647536,11991.336260,-72625.853210
1229.422610,0.000000,4293.194464,-72779.072310
1229.425150,2812.782580,-2516.700203,-73545.167808
1229.427691,4589.276840,19097.313304,-73238.729609
1229.430232,2368.659014,-9474.636058,-74464.482406
1229.432773,6365.771101,-5477.523971,-73545.167808
1229.435314,0.000000,-5033.400406,-72779.072310
1229.437854,-2368.659014,-26055.249158,-72932.291410
1229.440395,3108.864956,-5181.441594,-72472.634111
1229.442936,2220.617826,-7994.224174,-72932.291410
1229.445477,2516.700203,0.000000,-73851.606007
1229.448017,2072.576638,-9474.636058,-75383.797003
1229.450558,2368.659014,-740.205942,-74617.701505
1229.453099,2812.782580,10658.965565,-72166.195912
1229.455640,2072.576638,-13619.789333,-72625.853210
1229.458180,4145.153275,2368.659014,-73085.510509
1229.460721,1332.370696,-11547.212695,-72932.291410
1229.463262,1332.370696,-10362.883188,-74770.920605
1229.465803,5181.441594,-6513.812290,-72779.072310
1229.468343,2072.576638,-13915.871710,-74004.825107
1229.470884,2368.659014,-7994.224174,-73698.386908
1229.473425,1628.453072,-3849.070898,-72319.415011
1229.475966,4441.235652,-3404.947333,-71553.319513
1229.478506,6365.771101,11991.336260,-74311.263306
1229.481047,4589.276840,6217.729913,-73391.948708
1229.483588,1924.535449,12435.459826,-73391.948708
1229.486129,2812.782580,4293.194464,-72779.072310
1229.488669,3404.947333,4589.276840,-72932.291410
1229.491210,5773.606348,7994.224174,-74464.482406
1229.493751,3108.864956,-2072.576638,-75230.577904
1229.496292,1036.288319,-2072.576638,-73391.948708
1229.498833,4145.153275,11547.212695,-71859.757712
1229.501373,2664.741391,-5921.647536,-71553.319513
1229.503914,5773.606348,6365.771101,-73851.606007
1229.506455,1924.535449,7105.977043,-73851.606007
1229.508996,1332.370696,-3108.864956,-72932.291410
1229.511547,4885.359217,2516.700203,-73238.729609
1229.514098,3701.029710,7846.182985,-73085.510509
1229.516649,2368.659014,592.164754,-73085.510509
1229.519200,4145.153275,9326.594869,-72932.291410
1229.521751,1480.411884,8734.430116,-74158.044206
1229.524303,3256.906145,-9178.553681,-73391.948708
1229.526854,4589.276840,-3849.070898,-73698.386908
1229.529405,1036.288319,-10362.883188,-73545.167808
1229.531956,-1480.411884,-21762.054695,-72472.634111
1229.534507,2072.576638,-2516.700203,-72625.853210
1229.537058,4145.153275,-9474.636058,-73238.729609
1229.539610,4885.359217,3404.947333,-74158.044206
1229.542161,2368.659014,-8882.471304,-73545.167808
1229.544712,1924.535449,-8142.265362,-74617.701505
1229.547263,4589.276840,7846.182985,-71553.319513
1229.549814,-1332.370696,-31088.649564,-72319.415011
1229.552365,4589.276840,-20429.683999,-72779.072310
1229.554917,9030.512492,17912.983796,-71859.757712
1229.557468,-1332.370696,-34197.514520,-74464.482406
1229.560019,5181.441594,2960.823768,-72779.072310
1229.562570,1924.535449,-10955.047942,-73391.948708
1229.565121,-592.164754,-16284.530724,-72472.634111
1229.567672,3404.947333,9474.636058,-72472.634111
1229.570224,2368.659014,-11843.295072,-72625.853210
1229.572775,4145.153275,7402.059420,-73545.167808
1229.575326,4441.235652,10214.842000,-72932.291410
1229.577877,1480.411884,6809.894666,-71859.757712
1229.580428,2072.576638,5625.565159,-72012.976812
1229.582979,4145.153275,1776.494261,-73545.167808
1229.585531,6217.729913,9770.718434,-74311.263306
1229.588082,4737.318029,-8734.430116,-73851.606007
1229.590633,1184.329507,-5477.523971,-73698.386908
1229.593184,5477.523971,12583.501014,-72012.976812
1229.595735,6217.729913,6513.812290,-72932.291410
1229.598286,2220.617826,3404.947333,-74464.482406
1229.600838,6513.812290,7402.059420,-73085.510509
1229.603389,4589.276840,10658.965565,-72779.072310
1229.605940,3552.988522,-740.205942,-71706.538613
1229.608491,3552.988522,2960.823768,-72166.195912
1229.611042,3552.988522,18653.189738,-72932.291410
1229.613601,1776.494261,-296.082377,-73698.386908
1229.616160,3701.029710,8882.471304,-73698.386908
1229.618720,3701.029710,-14359.995275,-73391.948708
1229.621279,1480.411884,-1924.535449,-73545.167808
1229.623838,-1332.370696,-18209.066173,-72932.291410
1229.626397,1036.288319,-10658.965565,-71859.757712
1229.628956,1184.329507,-9474.636058,-73238.729609
1229.631515,3256.906145,-1332.370696,-73851.606007
1229.634074,5773.606348,-3108.864956,-73545.167808
1229.636633,2220.617826,-592.164754,-72472.634111
1229.639192,740.205942,-22946.384202,-72319.415011
1229.641751,2664.741391,2664.741391,-72319.415011
1229.644310,-148.041188,-21317.931130,-72625.853210
1229.646869,6069.688724,6513.812290,-71246.881314
1229.649428,-2960.823768,-14211.954086,-74311.263306
1229.651987,1776.494261,-14656.077652,-74311.263306
1229.654546,5773.606348,888.247130,-73698.386908
1229.657105,-2220.617826,-17468.860231,-72932.291410
1229.659664,4885.359217,1036.288319,-72625.853210
1229.662224,-740.205942,-5773.606348,-72012.976812
1229.664783,5921.647536,10807.006753,-74004.825107
1229.667342,4737.318029,9622.677246,-73085.510509
1229.669901,1184.329507,10955.047942,-72472.634111
1229.672460,3108.864956,1036.288319,-72472.634111
1229.675019,4737.318029,7254.018232,-72472.634111
1229.677578,5181.441594,9178.553681,-73851.606007
1229.680137,4737.318029,-2220.617826,-73851.606007
1229.682696,3849.070898,13619.789333,-72012.976812
1229.685255,-2812.782580,-15248.242405,-73238.729609
1229.687814,5773.606348,19097.313304,-73391.948708
1229.690373,10214.842000,32569.061448,-73851.606007
1229.692932,3997.112087,-14211.954086,-71553.319513
1229.695491,8438.347739,18209.066173,-73698.386908
1229.698050,-2812.782580,5773.606348,-73698.386908
1229.700609,3108.864956,-10658.965565,-72932.291410
1229.703169,6661.853478,31532.773129,-71859.757712
1229.705728,-1332.370696,-10066.800811,-73391.948708
1229.708287,8882.471304,13619.789333,-73391.948708
1229.710846,3404.947333,-4441.235652,-73851.606007
1229.713405,1776.494261,-11695.253884,-73851.606007
1229.715971,148.041188,-11695.253884,-71706.538613
1229.718536,148.041188,-15692.365970,-73085.510509
1229.721102,592.164754,-8882.471304,-72932.291410
1229.723668,6661.853478,-592.164754,-73851.606007
1229.726233,1776.494261,1924.535449,-75077.358804
1229.728799,3404.947333,-4293.194464,-72472.634111
1229.731365,4885.359217,7105.977043,-73085.510509
1229.733931,2516.700203,-7994.224174,-71859.757712
1229.736496,2664.741391,-7105.977043,-72319.415011
1229.739062,-1480.411884,-3108.864956,-74617.701505
1229.741628,-2072.576638,-11251.130318,-73851.606007
1229.744193,3701.029710,-10066.800811,-74311.263306
1229.746759,3701.029710,-4145.153275,-74158.044206
1229.749325,-888.247130,-13915.871710,-73085.510509
1229.751891,2220.617826,888.247130,-73085.510509
1229.754456,1332.370696,-6217.729913,-72166.195912
1229.757022,6809.894666,12583.501014,-74004.825107
1229.759588,2960.823768,7846.182985,-73238.729609
1229.762154,2220.617826,10214.842000,-73238.729609
1229.764719,4293.194464,1628.453072,-72472.634111
1229.767285,2960.823768,7698.141797,-73085.510509
1229.769851,5033.400406,11991.336260,-74311.263306
1229.772416,4589.276840,-1036.288319,-74311.263306
1229.774982,2368.659014,6217.729913,-72319.415011
1229.777548,740.205942,-3849.070898,-72625.853210
1229.780114,4145.153275,3552.988522,-72625.853210
1229.782679,1628.453072,1776.494261,-74464.482406
1229.785245,6661.853478,8290.306550,-72779.072310
1229.787811,6513.812290,7402.059420,-72319.415011
1229.790377,3849.070898,9030.512492,-71400.100414
1229.792942,2072.576638,-1776.494261,-73085.510509
1229.795508,5181.441594,13915.871710,-72472.634111
1229.798074,296.082377,5477.523971,-74770.920605
1229.800639,3849.070898,5181.441594,-73698.386908
1229.803205,3108.864956,-14063.912898,-73391.948708
1229.805771,2220.617826,-888.247130,-72932.291410
1229.808337,-444.123565,-19097.313304,-72625.853210
1229.810902,1480.411884,-6957.935855,-72472.634111
1229.813468,888.247130,-7698.141797,-72625.853210
1229.816034,2664.741391,-6365.771101,-73851.606007
1229.818604,5921.647536,-4441.235652,-74464.482406
1229.821175,740.205942,-296.082377,-74311.263306
1229.823745,2960.823768,-1924.535449,-72779.072310
1229.826316,3404.947333,-17172.777854,-72319.415011
1229.828886,2812.782580,-2960.823768,-73238.729609
